label;acc_x_avg;acc_y_avg;acc_z_avg;gyro_x_avg;gyro_y_avg;gyro_z_avg;acc_x_max;acc_y_max;acc_z_max;gyro_x_max;gyro_y_max;gyro_z_max;acc_x_min;acc_y_min;acc_z_min;gyro_x_min;gyro_y_min;gyro_z_min;acc_x_stdev;acc_y_stdev;acc_z_stdev;gyro_x_stdev;gyro_y_stdev;gyro_z_stdev
0;3.74;-10.05;-1.11;-12.91;-6.17;109.61;11.5;0.58;5.79;66.64;114.23;369.92;-7.62;-19.64;-10.49;-57.71;-156.36;-198.35;4.93;5.7;3.91;37.25;73.38;200.26
0;-0.36;-11.82;-0.94;0.15;13.21;-98.9;16.23;-5.94;7.99;39.62;80.29;-53.23;-10.56;-19.34;-6.26;-31.61;-214.63;-188.46;5.86;2.5;2.62;18.37;75.87;42.75
0;3.51;-10.22;-1.43;-9.29;-20.64;89.14;13.61;-0.08;5.01;89.33;117.4;353.22;-6.23;-19.95;-13.74;-67.03;-210.98;-197.78;5.37;5.05;3.9;39.03;85.05;192.06
0;0.48;-11.45;-1.03;2.04;30.77;-94.57;11.87;-6.23;9.9;46.71;100.72;-44.28;-7.39;-21.03;-7.75;-29.04;-78.07;-185.17;4.72;2.14;2.85;17.41;49.28;39.85
0;3.06;-10.33;-1.32;-13.62;-17.4;90.27;12.95;-3.08;4.44;49.44;212.1;388.51;-7.96;-19.06;-11.38;-60.8;-184.22;-200.72;5.78;4.62;3.93;31.07;104.45;199.75
0;-0.73;-12.31;-1.17;8.41;21.87;-103.04;10.77;-6.78;8.49;52.34;90.78;-55.64;-12.73;-23.9;-7.42;-32.21;-98.61;-189.08;4.9;3.32;2.62;20.17;50.2;43.73
0;4.28;-10.05;-0.78;-19.84;-18.09;117.72;11.12;0.74;4.42;41.09;121.04;361.36;-5.75;-18.9;-8.83;-55.65;-188.76;-178.68;4.65;4.42;3.33;30.66;85.09;194.14
0;-2.43;-12.47;-1.47;10.88;17.63;-111.89;18.67;-5.82;11.39;71.73;91.55;-26.25;-17.08;-23.34;-10.31;-30.11;-183.38;-216.29;7.39;3.35;4.15;25.46;68.21;51.91
0;4.83;-9.49;0;-37.29;0.1;141.9;16.2;-0.39;4.35;28.25;204.09;365.7;-7.08;-17.36;-9.64;-105.98;-222.52;-192.24;5.73;5.09;3.17;41.75;113.21;198.27
0;-2.67;-12.44;-1.61;12.76;3.44;-112.8;7.36;-6.94;11.56;68.84;71.56;-67.28;-16.19;-22.88;-12.39;-47.67;-211.45;-216.37;5.25;3.36;4.55;24.57;64.92;42.21
0;5.16;-9.5;-0.24;-27.98;-8.08;139.7;13.27;1.89;4.96;33.72;124.27;438.63;-6.13;-20.67;-8.84;-69.7;-265.33;-199.31;5.07;5.65;3.41;34.9;95.32;223.6
0;-2.04;-12.47;-1.51;13.86;12.83;-107.93;11.3;-8.6;13.26;65.27;83.91;-57.41;-12.93;-25.14;-11.52;-52.16;-249.86;-194.68;5.41;3.67;4.67;25.17;62.7;40.6
0;4.09;-9.62;-0.84;-25.39;-20.39;124.1;11.96;-0.21;4.34;35.28;153.89;406.09;-5.96;-18.58;-8.91;-73.26;-251.11;-184.99;4.97;4.96;3.62;34.05;108.43;209.97
0;-1.92;-12.7;-1.43;8.02;17.11;-111.71;13.67;-8.12;11.65;61.11;96.76;-48.72;-12.68;-25.53;-9.35;-45.22;-151.39;-206.99;5.72;3.72;3.97;22.45;58.39;47.47
0;3.94;-9.39;-0.38;-25.7;-20.64;129.52;14.06;-0.91;5.14;24.47;119.48;370;-4.85;-17.12;-9.2;-64.83;-278.45;-194.28;5.11;4.67;3.21;29.95;100.68;200.57
0;-1.4;-12.45;-0.92;7.16;20.84;-107.82;11.73;-5.49;13.21;58.3;103.46;-50.35;-11.47;-27.25;-12.02;-54.07;-209.18;-203.84;5.63;4.27;4.55;22.2;55.13;44.64
0;2.94;-9.86;-1.05;-19.75;-7.6;110.17;13.51;1.55;4.71;62.61;176.09;378.96;-12.27;-18.51;-9.67;-86.87;-293.18;-203.57;6.89;5.38;3.55;40.22;128.53;212.17
0;-0.8;-12.49;-1.27;-0.09;9.84;-105.21;9.28;-7.13;11.13;46.02;119.76;-55.14;-12.67;-25.64;-9.45;-52.47;-286.79;-190.55;5.04;3.8;3.87;20.3;76.31;44.64
0;3.06;-10.27;-0.74;-23.73;-11.22;105.36;14.51;-0.46;9.05;35.65;114.15;375.03;-12.78;-18.95;-11.86;-79.98;-227.61;-194.19;6.7;4.93;4.16;31.99;89.57;216.16
0;-1.64;-12.23;-1.19;4.19;14.54;-106.24;8.42;-7.76;12.14;49.59;80.36;-50.49;-12.64;-22.57;-12.12;-50.92;-169.77;-194.57;4.72;3.1;4.16;22.8;59.17;44.56
0;4.11;-9.71;-0.73;-18.79;-16;128.6;15.45;0.19;6.65;48.52;195.37;413.38;-4.46;-20.17;-10.56;-67.37;-260.08;-185.34;5.15;5.36;3.82;31.75;104.32;211.26
0;-0.52;-12.09;-1.33;5.07;22.81;-98.9;9.69;-8.53;10.02;57.46;101.33;-51.94;-7.99;-22.89;-10.34;-51.96;-237.24;-166.81;4.64;3.04;3.55;23.31;57.94;37.85
0;2.84;-10.18;-1.04;-14.52;-11.74;97.26;11.11;-1.39;5.67;53.33;155.56;396.37;-12.11;-17.67;-9.9;-76.85;-211.52;-169.19;6.15;4.36;3.4;31.33;91.14;208.95
0;-1.99;-12.42;-1.46;13.86;18.11;-107.54;16.79;-6.28;10.82;64.92;94.89;-44.4;-14.18;-27.99;-10.77;-39.76;-178.49;-196.74;6.39;4.16;3.99;22.79;59.21;45.15
0;4.43;-9.46;-0.72;-19.16;-16.74;127.43;14.37;1.54;5;55.17;173.34;379.84;-9;-17.38;-10.29;-76.73;-298.13;-186.62;6.15;4.95;3.72;38.74;116.8;207.3
0;-1.88;-12.5;-1.45;4.01;13.5;-111.32;11.11;-7.47;13.37;62.92;121.15;-59.23;-14.98;-25.05;-12.34;-63.67;-309.02;-200.09;5.5;3.64;4.62;28;85.68;42.06
0;4.46;-9.39;-0.85;-24.84;-17.81;131.27;12.53;0.71;5.71;28.05;166.85;376.41;-6.1;-17.69;-10.3;-66.05;-251.25;-183.23;5.01;4.59;3.7;27.81;101.1;199.86
0;-2.16;-12.59;-1.53;16.39;13.21;-108;14.07;-7.39;11.79;77.47;93.96;-47.58;-17.23;-26.89;-10.34;-48.68;-211.89;-194.06;6.43;3.93;4.21;27.1;70.12;40.23
0;5.02;-9.21;-1.11;-16.38;-13.04;130.39;16.38;-0.07;4.14;56.82;217.4;410.42;-4.93;-17.85;-10.84;-69.46;-252.26;-174.37;5.05;4.65;3.77;30.61;128.72;208.89
0;-1;-12.24;-1.12;7.79;21.35;-105.42;15.14;-5.34;8.86;62.97;85.75;-40.74;-11.54;-27.38;-9.32;-45.48;-143.92;-180.92;5.56;3.95;3.56;24.81;57.49;45.61
0;3.79;-9.77;-1.61;-5.45;-19.83;101.81;11.96;-0.21;4.39;63.65;127.15;365.55;-11.43;-16.6;-11.25;-56.67;-224.1;-182.6;6.17;4.65;3.66;31.06;97.34;204.21
0;-1.31;-12.42;-1.31;5.46;22.77;-103.08;12.73;-6.37;8.38;64.92;96.53;-35.64;-14.2;-24.45;-7.89;-48.47;-116.51;-199.25;5.98;3.37;2.93;24.93;58.03;51.84
0;4.03;-9.32;-0.77;-24.62;-6.61;119.46;11.16;0.57;5.19;32.77;146.88;359.99;-3.17;-15.67;-7.99;-75.74;-294.13;-185.99;4.35;4.19;3.13;31.94;101.59;201.58
0;-1.57;-12.43;-1.62;9.92;22.83;-105.06;15.37;-6.19;9.14;56.92;97.49;-24.69;-12.67;-24.21;-10.29;-48.69;-277.38;-194.64;6.26;3.44;3.75;26.95;82.23;52.16
0;4.4;-9.73;-1.15;-12.78;-12.93;127.27;13.39;-0.44;5.81;76.18;120.47;364.4;-4.56;-19.09;-11.11;-64.89;-207.8;-184.49;5.13;4.56;3.61;34.64;81.6;195.06
0;-1.72;-12.48;-1.19;4.6;12.67;-107.54;11.61;-8.36;7.4;56.84;71.51;-49.81;-13.83;-21.74;-8.94;-36.33;-203.3;-195.47;5.82;2.97;3.11;21.68;69.07;48.63
0;4.11;-9.69;-0.8;-24.94;-19.17;125.87;14.59;1.7;6.87;38.06;131.06;388.57;-5.63;-21;-9.24;-84.88;-185.44;-205.39;5.06;5.53;3.84;33.79;97.93;209.92
0;-1.06;-12.23;-1.31;2.67;20.17;-105.95;13.01;-7.52;9.04;51.09;108.98;-30.1;-11.91;-19.78;-9.32;-42.42;-179.37;-195.13;6.12;2.71;3.29;25.67;70.58;53.1
0;4.34;-9.48;-0.77;-23.26;-21.37;120.85;13.74;-0.05;5.53;61.73;180.81;359.62;-7.18;-18.52;-9.18;-66.48;-198.82;-199.99;5.69;4.86;3.52;33;101.47;193.62
0;-1.28;-12.17;-1.22;7.91;20.28;-105.16;15.37;-6.7;7.07;59.33;93.55;-32.81;-12.11;-19.98;-8.46;-32.53;-187.23;-203.27;6.53;2.79;3.03;24.56;63.56;54.14
0;4.26;-9.43;-0.41;-25.05;-8.6;128.49;12.31;0.54;5.85;44.4;152.14;382.66;-3.79;-20.87;-8.88;-73.36;-209.45;-190.58;4.83;5.29;3.17;35.9;86.21;202.69
0;-1.13;-12.49;-1.17;6.55;12.75;-103.27;12.31;-7.8;8.55;56.77;88.58;-44.35;-13.67;-25.31;-8.66;-41.09;-187.09;-197.67;5.51;3.89;3.24;20.77;54.06;46.49
0;3.42;-10.12;-1.16;-15.61;-16.93;106.94;12.16;-0.18;4.94;43.04;115.24;369.82;-13.04;-17.32;-9.41;-71;-206.81;-202.14;5.83;5.16;3.47;31.15;85.74;214.49
0;-1.47;-12.49;-1.4;12.95;21.65;-108.28;14.95;-6.5;9.02;67.99;89.32;-51.69;-16.59;-23.42;-8.53;-40.41;-125.76;-187.67;6.16;3.54;3.26;23.09;48.38;46.5
0;4.58;-9.79;-0.7;-20.04;-18.15;132.71;12.44;0.26;6.19;52.07;130.01;396.26;-3.58;-23.84;-9.84;-66.96;-203.15;-188.18;4.95;5.57;3.83;32.73;88.87;205.81
0;-1.96;-12.45;-1.4;13.55;18.58;-110.49;11.09;-7.04;8.48;67.92;76.52;-36.91;-15.26;-22.83;-8.37;-37.91;-137.47;-207.36;6.43;3.34;3.35;23.31;46.76;48.3
0;4.08;-9.83;-0.56;-30.8;-18.07;122.68;13.8;0.2;5.25;23.91;103.87;371.85;-4;-17.6;-8.93;-73.48;-289.91;-195.35;4.69;4.9;3.4;32.21;84.98;206.22
0;-1.6;-12.29;-1.03;15.96;23.62;-109.28;9.86;-8.06;10.36;66.43;83.89;-48.18;-12.63;-25.64;-9.11;-38.99;-129.89;-194.45;5.57;3.62;3.9;22.81;42.45;45.44
0;4.09;-10.2;-0.92;-15.98;-25.01;125.57;15.33;-2.07;4.44;51.52;158.22;391;-8.41;-20.24;-10.76;-66.23;-244.74;-189.36;5.71;4.55;4.16;38.08;101.41;211.97
0;-1.46;-12.74;-1.56;7.12;18.7;-109.81;12.99;-7.85;12.61;60.47;127.73;-58.17;-15.27;-26.32;-10.71;-52.81;-200.36;-204.96;5.97;3.87;4.46;24.13;59.19;46.64
0;4.01;-9.11;-0.6;-27.69;-4.74;137.26;17.29;1.72;6.63;50.55;175.69;403.04;-5.66;-20.84;-9.58;-89.2;-264.29;-213.63;6.23;5.86;3.45;38.7;128.24;213.09
1;5.52;-8.83;-1.47;-8.81;-12.56;96.48;15.81;-1.49;3.58;68.56;144.36;376.78;-7.96;-19.57;-9.51;-88.33;-169.62;-209.19;7.1;5.04;3.73;47.5;95.46;195.28
1;1.98;-11.41;-0.89;7.94;25.88;-95.85;23.53;-0.04;3.39;41.09;133.93;-13.81;-18.18;-23.02;-4.54;-24.38;-224.31;-221.45;9.38;4.45;1.53;19.2;73.99;68.98
1;6.89;-8.11;-0.88;-11.14;-22.35;71.92;17.69;-1.07;4.03;67.7;79.83;333.19;-6.87;-20.8;-8.74;-86.25;-208.42;-228.56;5.94;4.51;3.85;51.54;76.91;187.08
1;1.34;-11.44;-0.51;9.65;24.29;-77.91;16.26;-3.69;6.51;39.21;62.38;-8.36;-11.24;-15.07;-3.24;-18.35;-147.5;-178;7.39;2.56;2.05;20.26;50.66;55.73
1;6.21;-8.18;-0.97;-14.13;-21;76.74;14.88;0.36;4.37;53.6;112.35;352.64;-8.52;-22.03;-9.83;-80.32;-185.85;-187.35;5.93;4.72;3.91;47.65;81.58;190.59
1;1.93;-12.07;-0.95;10.58;28.65;-108.21;22.82;1.07;5.84;62.82;124.66;-44.99;-17.36;-26.91;-4.92;-27.66;-226.36;-242.62;9.03;5.2;2.35;23.7;75.18;59.5
1;6.62;-7.66;-0.23;-22.87;-21.82;117.15;12.9;-1.89;4.89;41.73;179.7;386.52;-6.4;-17.17;-9.06;-89.89;-170.56;-181.95;4.18;3.68;3.28;42.33;98.67;194.76
1;1.35;-12.28;-1.06;5.25;14.49;-114.53;24.46;-0.71;4.7;49.1;127.82;-32.59;-13.78;-27.1;-8.52;-22.66;-210.56;-229.68;8.87;4.92;2.51;15.47;78.14;63.31
1;6.74;-8.34;-0.73;-10.36;-26.6;99.45;16.88;0.82;6.33;57.14;157.93;370.27;-12.4;-24.4;-9.81;-82.33;-166.99;-206.23;7.46;5.09;4.11;42.93;99.68;196.02
1;2.15;-11.9;-1.09;0.79;19.68;-106.61;23.46;-1.42;4.53;33.37;114.43;-42.43;-22.16;-23.82;-9.78;-21.62;-245.41;-228.78;9.22;4.13;2.76;18.24;78.66;54.78
1;6.49;-7.78;-0.13;-23.91;-19.98;121.87;12.21;-1.49;4.23;52.73;134.76;411.31;-5.47;-16.99;-12.13;-81.44;-224.86;-166.66;4.09;4.4;3.94;41.81;80.66;205.66
1;2.25;-12.12;-1.15;6.09;22.78;-107.46;25.31;2.32;7.38;62.23;123.11;-30.37;-14.44;-31.86;-8.75;-20.92;-231.62;-245.47;8.96;5.87;2.91;19.19;77.94;66.83
1;5.61;-8.19;-0.59;-21.57;-34.79;115.14;13.99;-1.89;4.62;60.72;108.32;391.03;-8.67;-17.65;-14.8;-101.98;-215.38;-198.71;5.45;4.43;4.44;47.94;94.85;200.9
1;1.21;-12.07;-1.22;2.55;34.81;-103.9;23.7;0.15;6.41;46.6;156.33;-19.84;-14.24;-29.5;-10.12;-26.47;-252.15;-246.78;9.11;5.21;2.95;18.55;80.08;71.8
1;6.34;-8.53;-0.67;-10.04;-28.44;103.19;13.06;-0.69;4.84;62.27;132.01;369.67;-7.35;-23.39;-8.99;-67.08;-217.51;-198.52;5.7;4.86;3.29;35.52;94.84;193.14
1;1.06;-12.54;-1.08;3.33;29.48;-116.54;22.52;-2.71;5.82;38.36;133.13;-45.44;-13.91;-27.19;-7.98;-18.55;-199.89;-215.28;8.84;4.64;2.25;13.74;83.17;56.37
1;5.53;-7.77;-1.02;-19.37;-23.37;102.25;20.62;3.21;3.88;54.62;240;395.36;-6.49;-24.1;-13.37;-119.15;-227.16;-196.97;6.87;6.17;4.48;49.26;119.04;200.68
1;2.12;-11.27;-1.08;8.95;31.53;-103.31;16.64;2.13;4.08;52.22;102.91;-21.53;-10.14;-24.82;-7.66;-27.02;-187.43;-251.38;7.04;4.33;2.67;20.39;60.36;72.07
1;6.65;-8.13;-0.68;-2.33;-23.96;90.96;19.82;-1.6;5.51;53.56;181.73;386.36;-12.11;-18.87;-10.29;-84.51;-164.39;-256.53;5.31;5.17;3.51;35.45;85.29;207.81
1;1.92;-11.68;-1.18;13.35;24.2;-94.61;18.08;-1.68;5.25;67.6;66.77;-23.66;-11.43;-18.64;-8.62;-16.64;-162.55;-217.77;7.94;3.58;2.68;22.51;52.78;69.49
1;6.76;-8.26;-0.33;-27.51;-22.06;95.72;18.01;-1.23;5.44;61.61;146.75;393.87;-6.8;-28.51;-15.29;-87.66;-223.12;-209.93;5.28;5.75;4.21;46.66;94.47;209.58
1;2.38;-11.71;-0.86;17.94;22.72;-102.48;18.76;0.49;12.74;63.06;106.64;-33.15;-12.17;-24.23;-7.59;-16.61;-165.02;-231.88;7.84;4.09;4.24;24.27;63.94;63.47
1;6.96;-8.89;-0.55;-13.56;-22.9;105.17;22.21;-2.15;5.55;59.48;148.56;376.45;-8.51;-26.89;-13.71;-70.78;-139.28;-251.06;6.21;5.01;4.22;42.34;69.75;205.41
1;2.06;-11.41;-1.09;9.13;20.61;-95.93;23.39;-1.26;7.07;49.39;176.02;-26.21;-20.71;-23.86;-8.07;-18.16;-273.83;-221.18;9.2;4.05;2.73;18.6;80.16;63.14
1;6.45;-8.63;-0.18;-17.3;-23.15;94.85;22.06;-1.54;4.67;57.73;160.18;379.71;-7.99;-20.09;-8.03;-84.12;-161.69;-243.6;6.28;4.61;3.36;38.36;86.75;202.82
1;2.4;-11.59;-1.1;11.17;14.48;-103.31;20.33;-2.93;3.33;42.13;110.58;-39.54;-17.07;-19.14;-7.16;-14.82;-200.66;-223.1;8.17;3.46;2.14;17.12;57.95;58.17
1;7.22;-8.5;-0.02;-21.14;-17.91;100.18;14.63;-1.68;5.4;44.64;102.85;382.12;-5.01;-29.96;-17.31;-72.12;-152.15;-240.16;4.11;5.94;4.56;33.08;59.32;206.53
1;1.95;-11.8;-0.82;13.53;13.65;-94.94;16.44;0.7;9.18;56.61;104.48;-22.54;-15.78;-25.31;-8.78;-16.9;-251.04;-217.43;8.25;4.69;3.3;18.91;72.06;66.72
1;6.25;-9.32;0.07;-19.99;-20.88;105.4;16.67;-1.26;6.57;59.7;111.75;395.27;-10.48;-28.88;-11.65;-94.14;-186.97;-224.69;7.02;6.13;3.88;44.63;89.27;208.63
1;1.8;-11.47;-1.13;3.57;16.55;-104.05;20.74;2.63;7.25;51.98;107.4;-26.7;-15.71;-22.53;-8.81;-27.8;-234.28;-212.07;8.89;5.09;2.58;19.32;77.95;64.06
1;6.25;-8.58;-0.01;-19.01;-13.15;110.16;15.43;1.79;4.87;56.5;126.29;407.25;-6.86;-21.13;-9.5;-109.16;-184.27;-198.4;6;5.34;3.76;41.67;91.2;209.98
1;1.39;-11.99;-0.93;7.36;4.54;-108.33;21.73;1.98;5.06;44.83;113.07;-26.3;-19.54;-28.9;-7.76;-13.03;-255.37;-217.07;9.39;5.69;2.37;14.94;80.07;64.77
1;6.01;-8.65;-0.45;-16.16;-8.36;89.02;13.12;-0.29;6.12;53.22;167.17;373.63;-9.32;-22.74;-10.07;-86.14;-166.42;-224.28;6.68;5.86;3.75;36.98;91.39;203.75
1;2.06;-11.43;-0.81;11.3;17.71;-91.46;14.5;-1.1;4.46;38.13;100.25;-10.76;-14.05;-19.73;-8.74;-19.11;-170.14;-210.12;7.7;3.71;2.7;16.91;58.94;71.77
1;6.6;-8.65;-0.81;-8.34;-22.46;87.67;24.4;-0.42;4.97;62.72;138.79;375.33;-12.81;-24.02;-14.12;-65.74;-192.46;-232.47;7.46;5.45;4.39;39.14;101.58;203.22
1;1.46;-11.58;-0.98;7.21;17.16;-99.29;17.77;-1.16;5.18;41.17;99.22;-18.64;-19.14;-21.03;-7.64;-24.38;-229.83;-224.81;9;3.71;2.73;20.59;70.81;69.45
1;7.31;-8.06;-0.36;-9.38;-13.16;106;16.82;-0.04;3.9;44.91;98.41;396.51;-5.76;-17.57;-10.32;-64.35;-130.37;-237.82;4.49;4.83;3.39;32.93;67.2;212.66
1;2.69;-11.81;-0.9;11.97;16.29;-103.83;15.85;-1.7;5.31;41.93;95.1;-33.59;-12.98;-19.18;-6.27;-15.46;-138.9;-235.64;7.6;3.32;2.66;18.28;48.25;64.07
1;5.57;-8.87;-0.15;-33.48;-13.46;98.96;13.89;-1.94;5.15;34.85;146.71;392.48;-9.23;-31.06;-15.51;-90.93;-203.81;-210.01;4.62;5.97;4.16;39.64;88.15;202.06
1;1.89;-11.61;-0.68;11.31;20.25;-105.9;19.84;1.92;8.91;57.12;125.55;-16.21;-10.57;-24.06;-5.23;-10.53;-231.73;-233.16;8.46;4.67;2.88;16.85;83.46;72.57
1;6.67;-8.71;-0.39;-11.1;-15.89;97.74;18.6;2.33;5.2;63.11;166.81;396.8;-14.91;-24.61;-8.91;-112;-180.03;-253.98;7.73;6.58;3.98;46.91;97.14;212.77
1;2.29;-11.36;-0.98;10.18;7.68;-99.87;24.19;-0.84;4.08;48.2;135.58;-34.96;-22.85;-22.41;-7.48;-18.7;-253.95;-219.79;9.36;5.12;2.08;16.01;72.07;63.56
1;6.79;-9.04;-0.1;-24.45;-20.42;110.02;23.93;0.13;6.34;51.71;135.77;407.17;-10.24;-24.08;-12.23;-103.37;-144.38;-269.92;7.19;6.24;4.36;44.9;87.76;223.94
1;2.17;-11.8;-0.89;11.35;18.95;-105.2;22.24;-1.22;7.19;52.93;194.51;-37.08;-18.8;-24.87;-6.38;-17.14;-250.88;-233.04;8.9;4.34;2.55;19.25;75.57;62.5
1;5.85;-8.36;0.35;-24.05;-7.34;107.8;12.38;-0.93;4.91;54.52;150.22;390.28;-10.59;-22.61;-5.14;-79.16;-189.51;-187.12;5.5;5.13;2.55;39.14;89.13;203.15
1;1.79;-11.85;-1.3;7.77;19.42;-108.01;22.63;-0.58;5.61;44.25;172.27;-21.44;-15.6;-26.11;-6.17;-10.96;-199.84;-218.77;8.9;4.51;1.96;13.55;79.04;68.95
1;5.78;-8.26;-0.3;-21.95;-19.44;98.76;13.36;0.29;4.65;48.82;193.94;387.12;-6.97;-20.29;-9.17;-98.63;-223.66;-184.25;5.82;5.21;3.21;42.07;116.06;201.77
1;2.02;-12.24;-0.79;13.28;17.82;-111.13;22.31;-1.03;5.58;47.51;138.06;-45.81;-12.99;-28;-7.97;-13.33;-207.82;-216.06;8.57;4.89;2.27;16.88;75.04;56.72
1;5.81;-8.53;-0.6;-15.17;-23.34;110.13;13.09;-0.1;5.83;65.28;164.14;405.8;-8.46;-19.72;-8.42;-72.8;-188.25;-189.49;6.1;5.57;3.54;42.41;103.83;206.25
1;1.64;-12.19;-1.14;-0.2;17.98;-112.94;21.61;-0.03;3.06;37.03;121.14;-36.72;-13.98;-26.28;-7.33;-20.35;-251.03;-229.54;8.81;4.71;2.08;16.3;83.35;64.24
1;5.52;-8.86;-0.16;-21.1;-5.92;99.85;16.74;0.08;4.92;57.62;208.75;401.1;-9.61;-21.61;-7.82;-107.24;-258.33;-223.71;7.46;5.69;3.33;46.42;123.47;208.6
2;5.15;-9.07;0.56;-30.05;-8.57;112.35;14.62;-4.04;6.7;49.99;185.63;335.05;-2.85;-15.3;-10.74;-93.29;-161.53;-187.5;4.86;3;3.63;47.42;92.85;179.57
2;1.32;-11.59;-1.38;18.19;11.06;-101.35;33.66;-2.72;9.24;61.67;155.68;-17.94;-15.94;-31.02;-13.54;-35.21;-286.02;-225.93;9.62;5.82;3.89;26.29;93.33;66.23
2;5.66;-9.08;-0.51;-28.25;-23.38;95.87;14.61;-5.61;8.69;53.25;137.4;336.3;-2.67;-22.44;-10.1;-89.55;-228.72;-235.15;4.24;3.35;4.11;41.89;100.18;194.75
2;2.6;-10.77;-1.17;11.8;30.36;-99.92;25.55;-2.05;2.63;49.08;107.67;0.54;-9.17;-22.43;-10.92;-28.42;-232.88;-246.44;8.07;4.73;2.63;24.41;77.02;83.15
2;4.99;-10.46;-0.93;-31.88;-27.3;97.74;26.88;-2.99;3.9;61.98;189.71;326.54;-10.18;-30.1;-21.09;-90.83;-243.33;-229.23;7.63;5.88;5.33;44.47;106.66;184.13
2;1.23;-11.03;-0.85;17.01;29.66;-96.77;33.03;-1.94;7.88;56.59;117.32;-9.12;-21.6;-23.6;-9.45;-17.12;-284.42;-229.72;10.13;4.91;3.33;22.67;85.45;78.95
2;5.81;-9.31;-0.9;-9.75;-22.22;102.5;22.16;-3.48;6.75;51.97;143.64;340.96;-8.36;-20.94;-10.12;-75.63;-190.19;-258.22;6.2;4.32;3.99;39.48;86.18;202.1
2;1.69;-11.2;-1.11;14.98;30.89;-96.03;25.57;-4.37;7.34;52.77;108.11;-0.59;-12.8;-19.68;-9.19;-21.66;-205.74;-216.49;7.68;4.24;3.18;25.19;70.99;74.41
2;5.56;-9.14;-0.36;-24.66;-25.33;100.23;23.42;-2.98;7.7;69.13;136.98;353.94;-4.26;-27.64;-11.69;-86.87;-233.07;-257.15;6.09;5.39;3.96;44.2;98.36;200.35
2;2.39;-10.12;-1.15;12.22;42.55;-96.34;23.74;3.66;8.5;47.45;166.91;-0.33;-10.56;-19.39;-5.93;-32.02;-187.08;-240.27;8.3;6.57;2.99;19.67;67.59;85.25
2;5.18;-9.58;-0.79;-17.14;-36.12;83.43;14.12;-2.63;3.87;77.19;188.05;313.93;-7.41;-26.44;-18.83;-88.98;-193.01;-219.53;5.97;4.59;4.87;50.18;95.28;182.73
2;2.53;-10.56;-0.66;16.17;27.14;-100.14;23.4;-0.15;12.5;55.47;141.77;2.58;-9.34;-21.47;-8.84;-30.91;-189.85;-256.49;7.92;5.45;3.84;25.18;77.09;85.77
2;5.58;-9.46;-0.84;-28.46;-25.97;86.62;15.8;-1.88;7.4;74.45;99.2;358.55;-4.95;-27.44;-24.2;-83.07;-155.57;-282.06;4.79;5.81;6.24;45.53;72.88;205.97
2;3;-10.36;-0.42;17.62;15.82;-88.13;21.35;0.49;18.44;61.87;111.17;33.73;-6.67;-21.49;-10.45;-30.28;-154.03;-260.58;7.98;6.02;4.82;27.41;73.6;98.92
2;5.61;-9.64;-0.17;-33.73;-9.51;103.06;19.25;-4.31;5.2;86.54;118.92;343.57;-2.35;-28.05;-15.41;-89.56;-194.48;-245.74;4.1;4.74;4.66;51.25;82.21;198.8
2;2.08;-11.04;-0.9;11.9;19.67;-108.02;26.41;2.44;5.64;49.41;103.65;-1.73;-12.15;-26.51;-6.3;-26.75;-226.57;-251.78;9.01;5.56;2.76;21.72;69.5;90.9
2;6.12;-8.74;-0.59;-34.99;-19.64;95.22;26.94;-3.63;6.84;41.37;179.49;351.29;-5.83;-18.34;-23.22;-89.08;-179.95;-321.47;6.73;3.55;5.94;43.37;105.34;201.96
2;2.9;-10.82;-0.44;14.53;11.7;-95.68;19.64;-2.62;12.99;42.7;84.27;2.57;-10.68;-22.16;-9.32;-22.65;-234.12;-258.02;7.51;4.8;3.97;22.03;71.15;88.09
2;5.19;-9.3;0.27;-21.77;-17.68;79.47;15.55;-3.35;6.75;85.4;81.86;362.65;-10.39;-25.89;-14.15;-77.6;-231.53;-224.69;5.3;5.22;4.45;44.79;66.3;213.47
2;1.56;-11.08;-1.69;12.81;36.79;-96.18;24.23;-1.32;2.91;67.16;100.07;0.67;-8.87;-17.13;-6.43;-27.68;-196.38;-214.1;8.86;4.01;1.78;27.22;70.93;78.65
2;5.77;-8.91;-0.05;-32.8;-21.97;133.05;16.81;-4.13;5.88;44.07;224.23;380.41;-4.27;-14.86;-14.77;-100.56;-245.83;-178.36;5.13;3.14;3.95;45.13;135.27;205.25
2;0.26;-11.71;-1.42;16.33;14.7;-107.99;39.3;0.61;12.67;56.52;192.48;6.54;-25.13;-33.93;-14.12;-47.09;-314.52;-229.75;11.82;6.27;4.06;25.44;99.05;76.8
2;4.71;-10.19;0;-24.54;-11.55;90.52;13.54;-2.66;10.41;62.62;194.6;351.55;-21.9;-34.13;-17.35;-91.66;-185.21;-225.69;6.97;6.1;5.49;50.57;110.38;198.09
2;1.14;-10.51;-1.66;11.83;30.62;-105.92;36.26;0.5;3.87;55.39;192.15;6.06;-15.28;-20.62;-5.32;-26.91;-335.17;-243.91;11.77;5.19;2.59;24.47;106.18;76.69
2;5.21;-9.18;0.29;-21.56;-16.57;134.4;16.09;-1.63;3.21;43.84;128.08;322.75;-4.4;-15.72;-8.59;-75.02;-217.23;-139.37;5.2;3.59;3.95;38.79;85.03;162.86
2;0.26;-12.17;-1.82;3.03;14.28;-111.87;36.56;3.56;11.09;43.74;253.44;5.68;-18.15;-31.93;-16.02;-57.15;-316.45;-230.64;12.78;7.83;4.48;25.49;127.46;73.91
2;4.57;-8.9;-0.16;-11.45;-9.3;108.77;12.17;-1.66;4.86;44.58;151.68;346.07;-7.94;-16.48;-7.14;-78.5;-246.51;-207.04;5.62;5.19;3;40.59;100.55;195.18
2;0.65;-11.74;-1.83;5.24;24.79;-115.25;38.74;2.66;13.21;51.27;200.38;-1.64;-17.28;-33.56;-16.73;-50.51;-312.14;-235.68;11.55;6.78;4.98;25.38;116.77;71.27
2;5.45;-8.57;0.18;-30.15;-41.74;123.21;14.29;-1.06;4.6;50.04;158.28;345.76;-4.91;-18.87;-15.08;-104.86;-240.03;-193.71;5.82;4.24;3.96;50.46;105.02;191.71
2;1.58;-11.5;-0.9;6.38;13.38;-115.07;39.43;3.84;12.2;69.92;180.13;-6.3;-24.36;-34.75;-20.79;-50.79;-328.39;-247.25;12.39;8.08;4.83;23.9;103.44;72.14
2;4.3;-10;-0.07;-27.87;-11.72;90.27;17.77;-2.07;8.32;40.73;172.63;352.2;-23.63;-31.22;-18.98;-95.72;-251.58;-223.42;8.85;5.91;5.48;44.5;116.36;204.11
2;2.48;-10.01;-0.96;11.5;21.84;-91.79;37.16;-2;1.85;38.45;142.18;8.51;-12.02;-15.88;-5.35;-21.54;-316.47;-212.25;10.76;3.93;2.43;19.78;101.84;78.52
2;4.05;-10.36;-0.42;-21.37;-29.49;72.63;14.98;-1.57;6.05;40.95;176.78;372.95;-13.45;-32.34;-13.91;-84.71;-254.84;-233.99;6.62;5.89;4.56;43.5;108.47;222.9
2;1.67;-10.83;-1.75;3.82;29.94;-96.3;29.46;1.18;1.1;41.89;126.09;36.24;-14.6;-18.55;-7.58;-20.45;-267.82;-272.08;10.69;4.89;2.14;17.3;86.73;99.92
2;4.67;-9.44;0.51;-25.54;-11.98;130.83;15.51;-2.76;5.18;48.5;189.37;434.5;-9.04;-18.57;-12.85;-100.66;-225.43;-220.22;5.7;4.88;3.62;47.85;113.89;231.52
2;0.3;-11.83;-1.33;17.53;10.89;-113.66;37.04;3.05;14.33;69.8;215.1;13.71;-18.5;-35.47;-17.44;-41.87;-266.26;-257.32;11.85;7.24;4.92;24.86;99.07;83.25
2;5.25;-8.78;0.47;-25.18;-6.46;128.55;13.73;-2.23;4.49;40;131.68;351.99;-6.33;-17.04;-7.85;-83.81;-212.54;-218.24;5.22;3.66;2.94;45.45;86.13;200.21
2;1.03;-11.36;-1.54;13.33;11.07;-109.73;39.07;3.16;12.05;66.79;191.73;-2.15;-24.89;-35.42;-16.03;-49.97;-335.7;-256.68;12.07;7.35;4.72;27.1;113.85;74.72
2;4.77;-9.75;-0.41;-18.67;-24.03;77.64;16.06;-2.2;9.41;51.01;231.59;387.02;-12.26;-33.23;-16.81;-100.02;-198.65;-262.28;6.58;6.69;5.69;50.11;118.4;220.67
2;2.68;-10.16;-1.43;6.08;24.15;-96.61;34.41;5.95;2.98;42.4;114.07;26.85;-11.87;-20.74;-5.51;-25.89;-253.76;-242.64;10.89;6.44;1.91;20.93;89.62;87.39
2;4.91;-8.7;0.23;-38.05;-14.8;114.13;12.03;-3.16;4.65;40.48;122.52;362.91;-9.46;-16.25;-17.79;-113.21;-268.12;-224.92;4.85;4.8;4.04;48.42;103.44;199.57
2;1.29;-11.51;-1.45;13.97;13.41;-103.04;31.95;4.56;11.39;54.87;142.07;29.86;-10.45;-34.99;-15.6;-43.6;-240.73;-254.79;9.72;7.61;3.86;24.02;84.96;90.12
2;5.59;-8.69;-0.31;-21.44;-32.79;130.46;17.25;-2.6;7.37;68.48;161.56;419.94;-12.04;-20.52;-15.97;-105.55;-322.79;-209.97;6.84;3.98;4.42;49.8;123.36;230.16
2;0.31;-11.56;-1.56;8.43;23.28;-109.49;38.31;4.03;12.8;52.69;206.58;37.97;-22.95;-38.07;-21.62;-70.31;-321.91;-259.94;12.36;7.49;4.9;29.62;108.79;96.51
2;4.83;-9.29;0;-23.57;-17.77;80.75;14.4;-1.59;8.14;47.93;164.01;413.17;-7.47;-34.16;-11.9;-95.03;-196.91;-246.03;6.08;6.98;4.28;46.05;94.25;235.81
2;1.56;-10.74;-2.03;15.85;33.66;-109.37;30.39;4.58;3.72;41.19;117.52;22.93;-13.4;-20.37;-5.63;-26.46;-168.68;-250.04;10.5;5.79;1.67;19.45;68.55;92.4
2;6.29;-7.95;0.46;-37.27;-28.04;129.27;18.24;-3.28;5.53;52.14;170.19;357.69;-9.8;-17.82;-13.04;-111.29;-280.47;-199.86;5.62;4.06;4.09;51.61;108.57;197.94
2;0.8;-11.91;-1.35;7.62;17;-106.08;24.82;-0.38;3.92;42.75;121.2;17.79;-14.84;-26.09;-6.8;-27.78;-257.65;-231.55;10.23;5.48;2.49;20.66;90.12;88
2;5.11;-8.62;-0.17;-32.19;-15.72;115.25;12.87;-1.77;4.92;44.53;235.97;418.14;-6.66;-17.29;-12.03;-109.5;-223.25;-238;5.24;4;3.81;46.96;116.07;233.37
2;1.1;-12.5;-1.12;8.36;24.15;-117.01;29.77;3.53;8.14;60.14;209.6;12.87;-14.26;-31.98;-6.48;-14.04;-219.45;-260.11;10.74;6.39;3.07;17.26;88.88;87.38
2;4.94;-8.43;-0.16;-23.03;-9.7;120.46;15.59;0.28;6.65;40.2;189.29;431.55;-11.24;-18.45;-7;-87.73;-203.98;-212.11;6.59;4.8;3.28;40.98;101.1;224.47
