acc_x;acc_y;acc_z;gyro_x;gyro_y;gyro_z;label
-0.96;-10.35;-6.46;-32.44;-2.13;44.66;2
-0.16;-9.98;-6.49;-23.57;-1.67;30.54;2
0.53;-9.4;-6.67;-17.79;-1.97;13.18;2
0.94;-8.97;-7.11;-18.37;1.22;-1.25;2
0.92;-8.62;-7.71;-22.66;1.76;-12.09;2
0.48;-8.56;-8.08;-27.91;-3.71;-21.04;2
-0.37;-8.91;-7.87;-29.51;-10.1;-30.33;2
-1.41;-9.08;-7.55;-25.06;-17.78;-39.95;2
-2.68;-8.87;-7.49;-18.03;-28.93;-47.3;2
-4.02;-8.26;-7.96;-12.25;-36.9;-50.47;2
-4.64;-7.63;-8.93;-11.17;-35.01;-50.59;2
-4.79;-7.39;-9.64;-13.73;-27.1;-48.55;2
-4.3;-7.41;-9.9;-17.96;-19.04;-45.69;2
-3.25;-7.63;-9.71;-21.75;-13.19;-42.92;2
-1.96;-7.92;-9.66;-23.92;-6.21;-43.23;2
-0.98;-8.17;-9.85;-26.35;3.06;-46.59;2
-0.49;-8.04;-10.14;-30.18;14;-52.14;2
-0.94;-7.98;-10.46;-32.28;23.55;-56.75;2
-2.08;-8.22;-10.41;-32.34;32.57;-60.85;2
-3.74;-8.78;-9.64;-29.87;31.54;-62.64;2
-4.83;-8.88;-8.76;-26.7;31.25;-59.6;2
-5.03;-8.73;-8.04;-24.95;35.81;-54.85;2
-4.21;-9.29;-7.44;-25.15;31.82;-48.74;2
-3.17;-10.81;-7.66;-26.29;22.76;-42.93;2
-2.24;-12.03;-7.54;-20.95;27.48;-40.73;2
-2.29;-12.64;-8.45;-14.01;46.34;-39.21;2
-3.89;-12.36;-10.38;-9.2;56.67;-38.62;2
-7.02;-10.47;-12.61;-15.41;22.62;-35.23;2
-8.8;-8.85;-11.3;-32.74;-28.23;-26.79;2
-7.68;-8.72;-7.78;-33.67;-59.01;-16.67;2
-3.6;-9.38;-6.45;-20.37;-70.53;-9.67;2
0.76;-9.77;-7.17;-10.5;-64.27;-8.72;2
3.15;-9.76;-8.2;-3.18;-45.47;-14.83;2
3.43;-9.83;-9.86;0;-20.27;-25.67;2
1.78;-9.51;-12.04;-3.73;3.47;-33.17;2
-0.04;-8.74;-12.38;-12.44;16.54;-37.42;2
-1.42;-8.77;-10.71;-18.3;11.48;-37.47;2
-2.88;-9.16;-9.47;-14.22;-6.23;-33.8;2
-4.25;-8.76;-10.12;-10.93;-21.2;-24.8;2
-3.96;-8.08;-11.41;-13.91;-34.62;-15.8;2
-2.58;-8.4;-12;-21.46;-42.55;-8.71;2
-1.15;-9.4;-11.05;-23.44;-42.44;-5.07;2
-0.51;-10.13;-10.69;-18.51;-37.89;-4.18;2
-0.75;-9.93;-11.17;-15.36;-33.11;-3.97;2
-1.3;-9.63;-11.82;-14.9;-31.94;-2.98;2
-1.66;-9.39;-12.5;-15.59;-35.78;-1.58;2
-1.31;-9.33;-12.66;-18.22;-39.01;-0.29;2
-1.02;-9.49;-12.53;-19.11;-38.09;1.41;2
-0.63;-9.59;-12.04;-17.8;-36.65;2.31;2
-0.28;-9.53;-12.14;-16.02;-33.89;2.41;2
-0.3;-9.7;-12.3;-16.54;-30.89;1.73;2
-0.71;-10.02;-12.44;-17.2;-28.81;1.27;2
-1.01;-10.1;-12.11;-17.73;-28.86;1.77;2
-1.15;-10.01;-11.49;-16.21;-29.23;3.28;2
-0.83;-9.73;-11.35;-13.72;-26.76;4.83;2
-0.51;-9.66;-11.45;-12.89;-21.95;5.86;2
-0.61;-9.74;-11.29;-10.77;-18.81;4.63;2
-0.65;-9.92;-11.46;-8.5;-18.16;2.78;2
-0.56;-9.87;-11.62;-8.32;-16.37;0.33;2
-0.45;-9.9;-11.36;-9.4;-12.05;-1.56;2
-0.47;-9.9;-10.8;-8.12;-7.14;-2.99;2
-0.88;-9.83;-10.98;-3.97;-2.03;-5.03;2
-1.14;-9.54;-11.58;-2.29;-0.29;-5.35;2
-1.16;-9.37;-11.55;-3.74;1.01;-5.07;2
-1.42;-9.52;-11.26;-3.85;2.82;-4.8;2
-1.76;-9.61;-11.1;-2.73;1.48;-4.35;2
-1.95;-9.42;-11.28;-0.7;1.03;-4.08;2
-1.78;-9.3;-11.99;-0.47;-0.04;-3.69;2
-1.58;-9.24;-11.97;-2.41;0.76;-2.83;2
-1.3;-9.48;-11.49;-2.36;2.69;-2.64;2
-1.37;-9.41;-11.38;-1.34;5.38;-2.58;2
-1.48;-9.26;-11.55;-0.53;6.96;-2.48;2
-1.47;-9.12;-11.69;-0.71;9.7;-2.48;2
-1.6;-9.11;-11.49;-1.21;13.27;-2.09;2
-1.98;-9.38;-11.21;-0.66;15.14;-0.6;2
-2.09;-9.39;-11.02;0.47;16.02;1.2;2
-2.18;-9.29;-11.31;2.18;15.51;1.73;2
-2.23;-9.31;-11.86;1.16;13.54;2.45;2
-2.08;-9.44;-11.82;-0.15;11.67;2.95;2
-2.06;-9.42;-11.49;-0.36;10.58;2.74;2
-1.9;-9.37;-11.41;0.76;9.95;2.28;2
-1.36;-8.87;-11.59;3.15;9.84;0.7;2
-1.5;-9.42;-12.17;2.98;10.22;0.15;2
-1.74;-10.17;-12.23;0.6;10.74;0.99;2
-1.71;-10.68;-11.88;0;8.58;-0.52;2
-1.66;-10.17;-11.74;-0.54;3.99;-4.27;2
-1.4;-9.59;-11.4;-0.05;-0.75;-6.08;2
-1.16;-9.24;-11.35;1.47;-1.6;-6.56;2
-0.83;-9.37;-11.31;3.85;0.38;-6.62;2
-0.65;-9.55;-11.33;6.65;2.99;-8.43;2
-0.99;-9.58;-11.29;8.47;4.29;-10.69;2
-1.47;-9.53;-11.32;9.05;4.3;-11.62;2
-1.96;-9.59;-11.51;9.85;4.99;-10.95;2
-2.16;-9.33;-11.76;10.27;4.41;-9.82;2
-2.12;-9.11;-11.88;9.65;2.96;-8.24;2
-2.18;-9.12;-11.84;8.38;4.73;-5.53;2
-2.35;-9.21;-11.8;8;6.67;-2.36;2
-2.19;-9.17;-11.79;7.79;7.2;0.79;2
-1.9;-9.28;-11.87;7.18;7.67;2.84;2
-1.58;-9.39;-11.8;6.47;8.86;3.6;2
-1.3;-9.44;-11.61;5.72;9.91;4.05;2
-1.22;-9.27;-11.28;4.28;8.25;3.36;2
-1.17;-9.43;-11.05;4.06;6.31;2.47;2
-1.08;-9.58;-10.66;3.97;4.01;1.61;2
-0.72;-9.74;-10.53;5.17;3.69;-0.06;2
-0.63;-9.79;-10.55;6.59;3.69;-2.37;2
-0.99;-9.81;-10.35;7.24;1.7;-4.05;2
-1.15;-9.79;-10.23;7.51;-0.19;-4.63;2
-1.21;-9.74;-10.14;9.25;-1.94;-4.99;2
-1.37;-9.54;-10.63;10.58;-2.97;-5.48;2
-1.68;-9.4;-11.09;9.07;-4.07;-4.66;2
-1.82;-9.34;-11.19;6.8;-7.04;-3.43;2
-1.75;-9.33;-11.22;4.76;-10.1;-2.49;2
-1.69;-9.15;-11.11;2.22;-13.27;-1.5;2
-1.54;-9.14;-10.87;0.76;-15.07;-0.86;2
-1.46;-9.21;-10.75;0.41;-16.52;-0.04;2
-1.39;-9.33;-10.66;-0.21;-17.62;0.21;2
-1.31;-9.41;-10.54;-0.5;-19.51;0.57;2
-1.21;-9.5;-10.55;-0.73;-21.45;1.31;2
-1;-9.71;-10.22;-1.25;-19.31;2.65;2
-0.7;-9.78;-10.17;0.27;-18.07;2.86;2
-0.61;-9.64;-10.27;2.35;-16.99;1.08;2
-0.69;-9.57;-10.28;2.79;-14.75;0.47;2
-0.8;-9.71;-10.35;3.1;-12.06;0.72;2
-0.8;-9.66;-10.59;3.37;-8.96;0.58;2
-0.85;-9.5;-10.63;2.55;-7.39;0.21;2
-0.92;-9.48;-10.55;1.79;-6.68;-0.6;2
-0.93;-9.53;-10.51;1.98;-5.13;-1.23;2
-0.84;-9.51;-10.55;1.91;-4.23;-1.52;2
-0.81;-9.56;-10.58;1.85;-4.08;-2.4;2
-0.79;-9.61;-10.65;1.79;-2.23;-2.85;2
-0.62;-9.63;-10.5;1.05;-0.52;-3.68;2
-0.34;-9.73;-10.12;1.76;0.63;-4.93;2
-0.3;-9.86;-10.12;3.92;2.57;-7.43;2
-0.43;-9.69;-10.27;5.14;4.84;-9.91;2
-0.55;-9.66;-10.27;5.09;5.41;-11.72;2
-0.71;-9.55;-10.07;5.24;6.24;-13.11;2
-0.86;-9.52;-10.1;6.21;7.47;-13.35;2
-0.98;-9.61;-10.28;6.86;7.71;-13.31;2
-1.04;-9.59;-10.52;6.51;6.9;-13.37;2
-1.06;-9.65;-10.65;6.33;6.53;-13.63;2
-1.18;-9.56;-10.69;5.44;6.11;-13.45;2
-1.18;-9.67;-10.77;4.74;4.8;-13.37;2
-1.13;-9.85;-10.54;4.13;3.5;-13.93;2
-0.81;-9.91;-10.04;4.52;2.45;-14.62;2
-0.59;-9.99;-9.8;6.7;4.8;-16.12;2
-0.87;-9.9;-9.77;9.13;9.35;-16.69;2
-0.9;-9.55;-10.12;10.14;11.48;-15.11;2
-1.31;-9.4;-10.96;8.82;12.77;-13.4;2
-1.77;-9.16;-11.45;6.79;8.38;-10.76;2
-2.26;-8.93;-11.49;6.07;-4.61;-6.92;2
-2.72;-9.52;-11.34;4.85;-16.66;-1.72;2
-2.91;-9.55;-11;1.5;-19.36;4.41;2
-2.52;-9.43;-10.52;-1.3;-16.2;10.76;2
-2.15;-9.8;-9.97;-1.2;-10.98;15.12;2
-2.77;-9.79;-9.39;2.68;-9.77;21.7;2
-3.64;-9.24;-9.73;7.61;-9.8;31.19;2
-4.33;-8.88;-10.69;7.76;-10.42;41.43;2
-4.82;-8.88;-10.95;5.4;-15.62;51.47;2
-5.35;-9.17;-10.65;6.37;-19.1;61.61;2
-5.41;-9.39;-10.09;10.92;-15.61;73.15;2
-5.33;-9.61;-9.43;15.95;-5.62;84.14;2
-5.25;-10.06;-8.57;21.24;4.25;95.98;2
-5.04;-10.01;-8.61;24.57;4.41;107.34;2
-3.37;-9.65;-9.37;24.19;-2.33;115.49;2
-4.13;-9.54;-10.74;14.51;-13.97;123.77;2
-3.05;-9.74;-10.86;5.03;-10.97;130.39;2
-0.89;-10.48;-10.44;2.24;-1.92;131.67;2
1.53;-11.65;-9.95;4.95;12.74;123.99;2
3.16;-12.37;-10.3;13.47;11.51;103.22;2
2.64;-11.88;-12.18;16.05;-13.1;78.86;2
1.34;-10.95;-13.6;1.82;-29.95;60.81;2
-0.05;-9.81;-13.08;-16.83;-19.65;48.28;2
-0.97;-9.39;-11.66;-28.31;-5.52;39.37;2
-1.01;-9.37;-10.76;-31.13;-2.41;32;2
-0.88;-9.34;-10.46;-29.5;-5.65;22.68;2
-0.88;-8.88;-10.18;-26.99;-10.45;12.37;2
-1.18;-8.33;-10.39;-26.38;-15.87;2.38;2
-1.77;-7.95;-10.21;-27.69;-20.1;-5.08;2
-2.02;-7.96;-9.58;-27.88;-22.01;-11.02;2
-1.83;-8.29;-9.17;-25.92;-22.65;-14.72;2
-1.75;-8.49;-8.91;-21.71;-20.92;-18.35;2
-1.63;-8.27;-9.13;-16.84;-13.57;-21.49;2
-1.3;-8.18;-9.39;-13.03;-2.87;-25.75;2
-1.08;-8.53;-9.23;-9.65;7.06;-30.72;2
-1.27;-9.29;-8.68;-3.05;15.96;-34.88;2
-1.82;-9.58;-8.53;7.74;24.2;-37.01;2
-2.34;-9.26;-9.08;18.63;31.06;-37.75;2
-3.12;-8.71;-9.98;23.12;35.14;-37.41;2
-3.75;-8.14;-10.94;20.12;40.35;-36.62;2
-4.52;-8.12;-11.54;12.88;48.79;-34.22;2
-5.04;-8.4;-11.43;5.83;53.9;-29.83;2
-5.71;-8.67;-10.96;2.11;54.18;-25.79;2
-6.17;-9.07;-10.21;3.95;49.3;-22.73;2
-6.51;-9.1;-10.18;8.3;41.67;-21.28;2
-6.74;-8.92;-10.49;9.09;27.36;-19.19;2
-6.7;-8.6;-11.18;6.99;6.65;-17.34;2
-6.15;-8.23;-11.91;1.72;-16.52;-16.64;2
-5;-7.93;-12.28;-6.41;-34.36;-16.92;2
-3.56;-7.85;-12.04;-14.42;-46.11;-18.96;2
-2.18;-8.05;-11.29;-19.35;-52.22;-24.11;2
-1.28;-8.43;-10.34;-19.81;-51.02;-31.82;2
-0.8;-8.83;-9.5;-15.96;-47.33;-39.46;2
-0.51;-10.44;-8.78;-11.76;-45.51;-47.04;2
0.38;-11.53;-8.32;-3.21;-46.43;-54.34;2
1.61;-9.83;-9.22;7.07;-41.78;-62.44;2
1.64;-8.32;-10.46;5.3;-26.64;-71.77;2
-0.3;-9.03;-9.96;-3.44;-2.3;-76.54;2
-4.9;-11.05;-7.51;-0.05;25.87;-69.79;2
-9.49;-11.48;-7.81;13.98;41.69;-45.51;2
-8.48;-10.51;-11.61;12.22;39.99;-17.84;2
-4.31;-9.62;-13.88;-6.04;27.03;-1.21;2
-1.19;-10.04;-12.78;-25.09;10.47;-2.85;2
-1.75;-10.89;-9.43;-27.53;0.65;-10.63;2
-4.16;-10.85;-6.36;-12.76;3.01;-9.72;2
-4.95;-10.26;-5.9;7.29;15.88;-1.95;2
-3.06;-9.17;-8.03;18.11;31.83;3.07;2
-0.83;-8.54;-10.77;13.81;41.25;0.76;2
0.02;-8.65;-12.16;2.73;38.12;-6.08;2
-0.37;-9.33;-12.25;-4.58;23.06;-11.9;2
-0.63;-9.22;-11.81;-6.79;5.26;-16.57;2
-0.74;-8.76;-11.6;-9.07;-6.87;-21.11;2
-0.78;-8.65;-11.26;-12.71;-12.09;-26.14;2
-1.07;-9.07;-10.24;-14.27;-13.69;-29.69;2
-0.96;-9.34;-9.34;-12.47;-13.1;-31.56;2
-1.06;-9.39;-9.15;-8.49;-11.53;-31.93;2
-1.21;-9.18;-9.45;-5.13;-9.77;-30.28;2
-1.51;-8.89;-9.96;-4.95;-14.08;-28.59;2
-1.64;-8.72;-10.28;-5.67;-21.03;-26.53;2
-1.33;-9.03;-10.35;-5.04;-26.57;-22.34;2
-0.66;-9.11;-10.57;-2.2;-28.03;-19.14;2
-0.19;-9.45;-11.11;0.76;-24.62;-18.08;2
-0.03;-9.54;-11.6;1.37;-16.08;-17.77;2
-0.3;-9.82;-12.51;-0.77;-8.81;-16.44;2
-0.54;-9.89;-13.32;-5.95;-6.49;-14.85;2
-0.76;-9.85;-13.61;-12.58;-8.66;-13.5;2
-1.05;-10.05;-13.02;-17.58;-11.71;-12.93;2
-1.44;-10.54;-12.04;-18.14;-11.83;-14.02;2
-1.76;-10.61;-11.46;-14.73;-7.71;-14.36;2
-1.88;-10.14;-11.37;-11.18;-2.01;-13.51;2
-1.74;-9.9;-11.32;-10.58;1.9;-11.64;2
-1.5;-9.75;-11.13;-9.59;2.65;-9.47;2
-0.9;-9.78;-11.2;-8.13;1.77;-8.42;2
-0.45;-9.44;-11.51;-7.6;-1.61;-9.92;2
-0.31;-9.03;-11.46;-8.03;-6.59;-11.3;2
-0.29;-8.95;-11.45;-8.79;-9.26;-12.15;2
-0.09;-8.98;-11.18;-8.82;-9.09;-12.55;2
0.18;-9.09;-11.11;-8.45;-7.66;-13.16;2
0.52;-9.16;-11.07;-8.31;-5.74;-14.98;2
0.57;-9.42;-10.82;-7.02;-2.55;-16.53;2
0.57;-9.49;-10.79;-5.73;0.69;-18.28;2
0.48;-9.6;-10.65;-4.81;1.92;-20.21;2
0.02;-9.85;-10.57;-3.53;1.99;-21.65;2
-0.47;-9.99;-10.59;-1.9;2.54;-21.18;2
-0.78;-10.11;-10.81;-2.01;1.48;-19.79;2
-1.11;-10.01;-10.85;-2.45;-3.89;-17.5;2
-1.45;-9.77;-11.17;-2.78;-8.07;-14.95;2
-1.36;-9.48;-11.35;-4.45;-8.24;-12.9;2
-1.16;-9.29;-11.56;-5.94;-5.91;-11.36;2
-0.92;-9.47;-11.5;-6.23;-1.99;-10.16;2
-0.71;-9.62;-11.57;-5.72;4.26;-10.01;2
-0.7;-9.72;-11.51;-4.76;11.28;-10.53;2
-1.12;-9.78;-11.64;-4.23;15.84;-10.72;2
-1.44;-9.81;-11.75;-4.01;14.04;-10.01;2
-1.23;-9.61;-11.78;-3.5;10.9;-9.37;2
-1.06;-9.43;-11.76;-3.07;9;-9.42;2
-0.96;-9.49;-11.81;-2.63;7.32;-9.41;2
-0.82;-9.6;-11.81;-2.57;5.21;-9.55;2
-0.68;-9.84;-11.63;-2.11;2.9;-10.6;2
-0.61;-9.94;-11.54;-1.02;1.71;-12.22;2
-0.39;-9.91;-11.54;-0.4;1.37;-14.15;2
-0.21;-9.88;-11.42;0.08;1.63;-15.85;2
-0.11;-9.92;-11.24;1.23;1.64;-17.39;2
0.03;-10.04;-11.14;2.59;2.19;-18.27;2
-0.01;-9.95;-11.13;4.05;2.96;-19.43;2
0.01;-9.52;-11.33;5.4;1.88;-21.34;2
-0.25;-9.71;-11.55;6.02;-0.26;-22.32;2
-0.34;-10.04;-11.68;5.56;-2.81;-22.4;2
-0.36;-10.3;-11.79;4.83;-4.69;-20.99;2
-0.33;-10.32;-11.67;3.84;-7.13;-20.21;2
-0.39;-10.27;-11.43;3.08;-10.84;-17.98;2
-0.42;-10.3;-11.24;3.05;-12.41;-15.51;2
-0.41;-10.29;-10.87;4.45;-11.25;-12.73;2
-0.61;-10.18;-10.8;6.24;-8.76;-9.23;2
-0.67;-9.67;-10.87;7.48;-7.84;-6.21;2
-1.06;-9.39;-10.65;7.82;-9.71;-1.98;2
-1.58;-9.45;-10.52;8.39;-13.07;3.51;2
-1.73;-9.5;-10.53;9.87;-16.01;9.21;2
-1.56;-9.31;-10.67;10.58;-19.8;13.49;2
-1.44;-9.1;-10.86;10.74;-26.03;15.44;2
-1.47;-8.88;-10.9;11.39;-31.28;16.59;2
-1.24;-8.81;-10.98;13.41;-31.53;20.73;2
-0.6;-8.88;-10.86;15.84;-22.27;26.08;2
-0.44;-9;-10.64;16.82;-5.84;27.9;2
-0.86;-9.01;-10.03;18.37;13.7;28.53;2
-1.73;-9.22;-9;26.36;32.22;31.69;2
-2.92;-9.17;-9.32;36.02;39.2;38.21;2
-3.89;-8.33;-10.09;39.58;36.14;45.87;2
-4.39;-8.08;-9.4;41.19;35.01;56.71;2
-4.67;-8.47;-8.53;47.23;40.59;68.87;2
-4.82;-8.37;-8.87;53.65;45.7;80.64;2
-4.89;-8.2;-9.31;51.1;45.78;95.94;2
-4.13;-8.25;-9.62;46.03;41.49;112.15;2
-2.99;-8.82;-10.11;39.34;37.96;125.91;2
-1.04;-10.01;-10.71;31.72;38.3;136.86;2
-0.77;-11.04;-11.35;25.17;27.61;138.29;2
-0.48;-12.04;-11.9;18.91;23.19;133.79;2
-0.6;-12.24;-12.64;11.43;23.92;127.02;2
-0.99;-12.06;-13.17;3.8;26.62;118.75;2
-1.4;-11.42;-13.87;-6.15;29.45;111.18;2
-2.11;-10.67;-13.96;-19.57;30.41;103.65;2
-2.49;-10.11;-13.33;-32.89;29.4;96.14;2
-2.5;-9.9;-12.4;-43.03;23.19;87.05;2
-2.57;-10.1;-10.89;-46.92;10.93;80.04;2
-2.74;-10.18;-9.63;-42.94;-4.46;73.94;2
-2.68;-10.44;-8.84;-35.59;-23.58;68.47;2
-2.55;-10.45;-8.53;-30.57;-44.52;61.39;2
-2.63;-10.3;-8.57;-27.11;-59.84;54.18;2
-2.5;-9.87;-8.78;-24.49;-68.88;48.79;2
-2.11;-9.27;-8.95;-24.27;-72.96;43.7;2
-1.81;-9.02;-9.36;-25.96;-71.76;39.46;2
-1.74;-8.85;-9.06;-27.37;-66.21;35.36;2
-1.56;-8.69;-8.89;-25.57;-58.23;30.78;2
-1.28;-8.68;-9.11;-21.13;-51.03;24.47;2
-1.25;-8.64;-9.15;-15.53;-41.68;17.31;2
-1.29;-8.54;-9.29;-9.83;-29.24;11.02;2
-1.22;-8.54;-9.64;-6.31;-12.26;5.79;2
-0.72;-8.54;-9.49;-4.42;6.96;0.73;2
-0.04;-9.07;-8.95;-0.95;22.12;-7.28;2
-0.47;-8.92;-8.69;2.91;31.56;-15.76;2
-1.12;-8.44;-8.83;7.24;34.84;-21.55;2
-1.06;-8.63;-10.22;4.52;55.54;-31.49;2
-1.78;-8.73;-9.85;-2.98;70.26;-44.75;2
-3.39;-8.41;-9.7;-2.48;70.22;-53.62;2
-5.28;-8.05;-10.35;2.44;69.8;-60.79;2
-6.56;-7.46;-10.46;6.51;63.6;-64.53;2
-6.87;-6.99;-10.21;6.25;46.2;-63.07;2
-6.59;-6.89;-9.83;1.98;27.25;-55.4;2
-5.38;-7.84;-10.29;-2.76;21.45;-47.53;2
-3.73;-8.72;-11.59;-2.18;22.93;-45.3;2
-1.99;-8.45;-12.75;-2.57;17.19;-46.42;2
-0.69;-7.6;-12.68;-11.44;-5.39;-53.77;2
-0.89;-7.55;-10.03;-24.92;-27.1;-61.6;2
-1.61;-10.42;-6.99;-22.02;-13.84;-69.5;2
-2.67;-13.14;-6.89;-1.53;12.75;-77.89;2
-4.17;-12.22;-10.99;9.1;18.96;-76.97;2
-6.36;-9.45;-14.26;-5.88;22.42;-64.21;2
-7.84;-7.81;-14.62;-29.78;0.32;-43.14;2
-7.11;-7.69;-11.86;-48.02;-42.2;-24.2;2
-3.87;-8.37;-6.63;-35.55;-63.83;-15.72;2
-1.79;-7.57;-6.69;-7.97;-67.55;-17.19;2
-0.46;-6.5;-9.35;1.63;-49.91;-21.32;2
-0.55;-6.97;-10.64;4.69;-23.28;-23.46;2
-1.73;-8.65;-11.71;8.96;-3.38;-22.4;2
-3.02;-10.22;-12.92;8.54;-4.59;-17.31;2
-3.32;-10.72;-13;4.28;-14.97;-11.24;2
-2.92;-10.03;-12.6;1.07;-14.62;-10.72;2
-3.19;-9.38;-12.31;-3.58;-6.65;-12.66;2
-3.06;-9.19;-11.97;-5.79;-2.07;-12.7;2
-2.5;-9.73;-12.49;-7.15;-1.62;-15.53;2
-1.76;-10.24;-12.28;-7.01;-4.55;-20.77;2
-1.38;-10.71;-11.49;-6.99;-11.64;-25.58;2
-1.64;-11.47;-11.08;-6.97;-22.49;-30.85;2
-1.58;-11.46;-11.18;-5.99;-35.08;-35.79;2
-1.16;-11.02;-11;-6;-42.22;-40.66;2
-0.9;-10.93;-10.95;-5.72;-44.81;-44.01;2
-0.73;-11.32;-10.82;-5.43;-40.12;-46.67;2
-0.8;-11.64;-10.64;-3.76;-33.39;-47.45;2
-0.7;-11.5;-10.82;-2.07;-27.23;-49.17;2
-0.87;-11.13;-11.19;-1.16;-20.53;-50.08;2
-1.6;-10.69;-11.46;-0.78;-16.08;-50.01;2
-2.43;-10.39;-11.28;-0.32;-14.58;-47.64;2
-3.01;-10.41;-11.3;0.04;-16.23;-44.05;2
-3.3;-10.13;-11.31;-0.04;-19.81;-40.45;2
-3.17;-9.72;-11.24;-0.02;-20.49;-37.17;2
-2.94;-9.21;-11.3;0.37;-18.55;-34.5;2
-2.64;-9.19;-11.49;1.86;-14.88;-33.5;2
-2.69;-9.03;-11.47;2.39;-12.26;-31.85;2
-3;-9.09;-11.2;1.43;-12.52;-29.14;2
-3.14;-9.13;-10.8;3.31;-8.59;-23.72;2
-3.13;-8.82;-10.45;7.61;-4.81;-18.3;2
-3.16;-8.37;-10.4;11.8;-4.28;-13.82;2
-2.97;-8.01;-10.4;16.31;-3.95;-8.9;2
-2.84;-7.44;-10.53;20.91;-0.81;-4.31;2
-2.75;-7.44;-9.93;24.25;6.47;3.75;2
-2.61;-7.9;-9.34;27.26;24.16;15.99;2
-3.26;-8.87;-9.39;28.27;33.12;30.75;2
-3.85;-9.74;-10.87;30.66;29.46;43.92;2
-3.55;-9.41;-11.02;33.25;25.33;54.36;2
-2.06;-9.32;-10.52;35.43;19;62.86;2
-0.89;-9.35;-10.45;35.1;17.44;68.47;2
-0.48;-9.23;-10.29;32.14;22.74;71.72;2
-0.68;-9.59;-10.59;27.79;28.5;73.18;2
-1.19;-10.29;-11.21;22.31;35.47;72.46;2
-1.94;-10.86;-11.63;17.05;43.26;71.88;2
-2.01;-11.14;-11.83;10.71;50.41;72.21;2
-1.63;-11.05;-11.93;2.5;55.5;70.91;2
-1.31;-10.92;-11.4;-4.6;52.1;69.36;2
-1.38;-10.73;-10.43;-6.83;40.06;67.55;2
-2.01;-10.75;-9.85;-4.38;25.41;65.84;2
-2.63;-10.23;-9.58;-0.85;11.96;63.5;2
-2.92;-9.92;-9.77;0.95;2.18;61.83;2
-2.75;-9.71;-10.01;0.38;-4.21;59.86;2
-2.31;-9.91;-10.09;-1.86;-7.61;56.69;2
-1.94;-10.27;-10.15;-4.06;-6.63;52.86;2
-1.8;-10.43;-10.13;-5.76;-2.78;49.57;2
-1.73;-10.15;-10.16;-6.41;-3.01;47.68;2
-1.71;-9.73;-10.37;-7.36;-7.76;45.95;2
-1.67;-9.27;-10.5;-9.82;-12.94;43.05;2
-1.59;-8.96;-10.14;-10.98;-18.07;39.82;2
-1.41;-8.79;-9.9;-9.86;-22.84;35.64;2
-1.16;-8.82;-9.9;-7.97;-26.82;30.59;2
-0.95;-8.77;-9.74;-6.11;-28.62;25.28;2
-0.87;-8.99;-9.67;-4.73;-26.85;18.97;2
-0.72;-9.18;-9.65;-4.14;-20.36;12.89;2
-0.49;-9.14;-9.59;-2.13;-12.1;6.27;2
-0.11;-8.94;-9.56;1.68;-2.28;-0.71;2
-0.05;-8.65;-9.75;4.34;7.98;-9.09;2
-0.12;-8.17;-9.94;5.03;18.56;-18.62;2
-0.26;-8.19;-9.78;4.88;28.5;-28.49;2
-0.74;-8.38;-9.73;4.36;36.12;-38.47;2
-1.31;-8.83;-9.69;5.21;39.03;-46.79;2
-1.89;-9.35;-9.38;9.9;39.44;-52.21;2
-2.2;-9.47;-9.53;15.59;40.36;-55.15;2
-2.44;-9.4;-9.77;19.73;38.71;-56.6;2
-2.81;-9.16;-10.3;22.16;36.78;-57.79;2
-2.94;-8.81;-10.83;22.6;40.53;-59.32;2
-2.88;-8.21;-11.54;18.95;48.99;-61.61;2
-2.74;-8.12;-11.81;10.25;54.46;-65.59;2
-2.37;-8.8;-11.41;-1.61;50.4;-71.99;2
-2.75;-9.61;-9.76;-8.46;34.32;-77.9;2
-3.84;-10.43;-8.34;-2.18;17.23;-82.17;2
-5.56;-10.11;-8.09;11.73;11.86;-83.04;2
-7.42;-9.39;-9.39;20.71;12.84;-76.72;2
-9.02;-8.36;-11;19.81;-0.89;-61.92;2
-9;-7.61;-12.49;6.64;-30.66;-47.49;2
-6.94;-7.35;-12.97;-14.57;-58.96;-36.25;2
-4.07;-7.63;-12.55;-32.13;-69.8;-30.71;2
-1.19;-7.72;-11.85;-41.36;-65.25;-32.19;2
0.89;-7.95;-10.29;-41.63;-54.32;-40.66;2
1.38;-9.38;-8.95;-32.18;-38.6;-48.99;2
1.45;-10.54;-7.87;-14.5;-23.2;-55.54;2
1.53;-10.16;-8.34;0.36;-8.86;-60.87;2
1;-9.36;-9.36;3.46;10.16;-63.48;2
-0.51;-9.18;-9.52;-2.34;31.01;-62.4;2
-3.46;-9.42;-9.01;-4.95;43.79;-53.07;2
-6.05;-9.18;-9.63;-3.82;44.85;-35.2;2
-5.87;-8.48;-11.89;-10.02;33.02;-14.66;2
-3.62;-8.34;-13.1;-22.35;7.83;-2.05;2
-1.81;-8.34;-12.65;-29.44;-22.55;2.54;2
-1.32;-8.32;-11.14;-30.38;-49.41;4.57;2
-0.8;-9.05;-9.95;-25.3;-50.83;8.09;2
-0.45;-9.84;-10.01;-14;-29.47;12.98;2
-0.09;-8.98;-11.77;-4.74;-11.84;14.98;2
-0.1;-7.51;-13.81;-7.44;-11.75;16.72;2
-0.43;-7.28;-14.64;-17.31;-21.3;19.86;2
-1.06;-8.25;-13.61;-26.87;-36.33;22.88;2
-1.7;-9.08;-12.21;-30.48;-44.23;22.9;2
-2.09;-9.52;-10.81;-26.76;-45.23;23.3;2
-1.55;-10.3;-9.04;-21.82;-34.46;24.93;2
0.18;-10.78;-7.59;-12.83;-21.99;22.95;2
1.31;-10.35;-7.65;-9.29;-16.51;14.17;2
2.33;-11.73;-8.3;-9.63;-7.84;9.99;2
4.52;-12.58;-8.49;0.34;32.92;-1.66;2
5.56;-14;-10.92;23.16;41.69;-22.85;2
3.78;-14.36;-14.56;17.08;5.44;-37.6;2
1.7;-14.19;-12.33;3.51;-7.1;-53.57;2
0.12;-13.93;-10.87;1.98;-9.64;-65.67;2
-1.54;-13.76;-12.2;2.24;-12.78;-70.71;2
-1.83;-13;-12.86;-1.95;-17.65;-74.14;2
-1.26;-13.28;-12.22;-6.55;-21.82;-77.73;2
-0.91;-13.47;-12.11;-7.07;-23.06;-81.86;2
-1.27;-12.86;-12.38;-7.78;-22.26;-83.95;2
-1.79;-12.5;-12.52;-8.9;-19.82;-81.34;2
-2.31;-12.02;-12.23;-7.88;-18.29;-75.79;2
-3.01;-11.45;-12.03;-5.58;-10.88;-67.91;2
-4.05;-10.95;-11.77;-5.62;-0.68;-57.43;2
-4.56;-9.96;-11.21;-7.37;5.83;-47.75;2
-4.57;-8.82;-10.62;-4.48;5.66;-39.38;2
-4.56;-7.87;-10.71;3.5;-2.53;-31.64;2
-5.28;-7.06;-10.81;10.12;-5.77;-24.51;2
-6.04;-6.27;-9.7;14.05;-4.01;-12.03;2
-6.7;-5.41;-8.51;22.21;-2.07;3.32;2
-7.69;-4.83;-8.43;33.62;-4.54;19.95;2
-8.06;-4.51;-8.66;45.97;-6.01;39.86;2
-7.36;-4.38;-8.35;57.75;3.38;59.66;2
-6.03;-4.74;-7.81;68.55;16.99;78.42;2
-4.2;-5.13;-8.18;75.11;22.99;94.34;2
-3.53;-4.85;-9.88;70.37;10.77;108.57;2
-3.35;-4.69;-11.15;59.85;1.94;119.94;2
-3.34;-5.3;-10.28;53.78;6.64;134.25;2
-2.52;-5.9;-10.43;49.14;14.46;147.37;2
-2.18;-6.85;-10.77;44.67;20.68;156;2
-1.67;-8.07;-11.05;42.95;25.29;159.3;2
-1.62;-10.26;-11.98;39.96;31.51;158.16;2
-2;-13.95;-13.43;32.4;45.45;156.21;2
-1.34;-16.99;-14.23;27.18;52.83;153.54;2
-0.29;-17.41;-14.6;21.75;48.87;153.68;2
0.8;-16.7;-14.9;4.75;44.14;152.28;2
0.9;-15.51;-13.8;-26.44;41.7;147.07;2
0.47;-15;-10.94;-52.96;38.76;141.12;2
-0.4;-15.67;-8.35;-55.31;30.73;133.88;2
-0.92;-16.16;-7.54;-41.32;26.52;126.91;2
-1.67;-15.42;-8.32;-35.34;21.29;116.64;2
-2.75;-13.82;-8.4;-40.83;2.8;104.08;2
-3.45;-12.15;-7.59;-45.51;-24.23;92.5;2
-3.97;-10.43;-7.34;-45.24;-52.71;84.21;2
-3.26;-9.65;-6.82;-39.73;-79.28;74.98;2
-2.79;-9.29;-7.1;-30.5;-95.53;63.45;2
-1.35;-8.87;-8.4;-27.67;-87.3;50.89;2
0.86;-9.13;-8.26;-24.7;-74.17;36.18;2
2.72;-9.04;-7.9;-20.8;-57.62;18;2
3.02;-7.93;-8.25;-16.49;-30.87;-1.63;2
2.74;-6.97;-8.43;-7.85;2.22;-20.35;2
2.28;-6.51;-9.07;2.33;31.52;-38.64;2
1.58;-6.69;-9.44;9.66;54.62;-58.16;2
0.14;-7.38;-9.36;18.98;68.42;-75.09;2
-1.79;-8.32;-9.59;27.54;71.28;-87.85;2
-3.92;-9.18;-10.43;35.46;68.29;-96.98;2
-5.62;-9.19;-11.54;41.07;59.22;-100.16;2
-6.43;-8.56;-12.39;40.52;51.4;-97.7;2
-6.52;-7.62;-13.69;28.99;51.9;-93.11;2
-6.02;-6.61;-14.31;7.92;56.76;-87.56;2
-4.78;-5.94;-13.84;-16.04;58.9;-83.41;2
-3.42;-6.11;-12.57;-37.14;54.06;-82.01;2
-2.35;-7.25;-10.51;-45.75;42.41;-83.75;2
-2.35;-8.5;-8.36;-37.7;24.72;-89.74;2
-3.71;-8.74;-7.16;-13.59;4.01;-95.08;2
-5.25;-7.62;-8.35;10.71;-15.69;-95.63;2
-6.56;-5.74;-11.09;16.24;-41.04;-90.5;2
-7.36;-4.14;-12.75;-0.8;-69.63;-79.97;2
-6.92;-3.77;-12.28;-25.57;-95.12;-64.46;2
-4.88;-6.45;-10.09;-47.7;-113.1;-51.05;2
-1.06;-10.39;-6.7;-47.85;-104.68;-46.71;2
1.46;-11.91;-4.95;-29.02;-52.53;-44.71;2
1.27;-11.69;-5.74;-13.18;22.93;-29.66;2
-0.7;-10.46;-8.48;13.57;108.45;-20.39;2
-5.58;-8.22;-19.02;20.76;85.85;-6.79;2
-10.27;-5.94;-29.4;-50.09;-18.43;36.45;2
-6.76;-7.89;-13.24;-103.44;-42.53;69.77;2
2.03;-11.89;0.79;-33.55;-30;52.62;2
5.29;-9.2;-7.69;20.38;7.65;21.26;2
4.25;-8.16;-14.81;7.64;26.54;-0.17;2
0.06;-9.76;-15.14;-14.28;19.84;-11.67;2
-2.32;-12.36;-11.65;-22.13;3.82;-17.32;2
-2.11;-13.18;-9.76;-8.19;-20.14;-19.01;2
-1.31;-12.95;-10.47;-2.46;-34.04;-20.59;2
-0.49;-12.76;-10.76;-4.99;-33.02;-21.64;2
1.91;-12.73;-10.25;0.59;-13.63;-25.33;2
4.27;-12.95;-11.14;6.11;10.43;-36.93;2
4.43;-14.01;-11.95;6.91;28.45;-52.39;2
2.71;-14.36;-11.87;6.22;42.78;-65.88;2
0.24;-14.19;-11.87;6.08;49.57;-70.92;2
-1.2;-13.63;-11.6;6.26;49.58;-70.87;2
-1.72;-13.66;-12.26;7.43;46.8;-70.69;2
-1.51;-13.22;-12.32;4.63;41.47;-73.62;2
-1.16;-13.44;-11.99;2.64;34.04;-78.93;2
-1.37;-13.37;-12.1;3.06;30.83;-83.27;2
-1.36;-12.36;-11.59;2.86;29.17;-84.27;2
-1.75;-11.86;-11.26;6.08;26.74;-83.63;2
-1.98;-10.95;-11.28;7.57;24.96;-82.24;2
-2.01;-10.4;-11.56;9.63;18.93;-81.27;2
-2.27;-10.07;-11.69;9.42;15.03;-80.12;2
-2.35;-9.43;-11.26;7.39;12.25;-78.38;2
-2.76;-8.88;-10.97;7.48;11.61;-76.23;2
-3.15;-8.32;-11.11;8.85;10.51;-72.22;2
-3.23;-7.45;-11.25;9.38;8.96;-67.64;2
-3.39;-6.83;-11.39;9.94;7.38;-63.46;2
-3.66;-6.62;-11.54;12.4;7.46;-58.44;2
-4.27;-6.62;-11.43;14.3;6.45;-53.17;2
-4.87;-6.26;-10.69;15.8;1.74;-44.05;2
-4.81;-5.69;-10.09;16.82;-1.42;-31.06;2
-4.62;-5.54;-9.7;19.85;-2.04;-18.1;2
-4.01;-5.57;-9.61;25.88;-0.52;-2.33;2
-3.02;-5.66;-9.35;31.96;6.22;13.75;2
-2.3;-6.03;-8.76;40.95;15.88;27.02;2
-2.71;-6.54;-8.1;51.91;27.74;37.31;2
-3.39;-6.34;-7.67;65.24;38.96;48.24;2
-4.36;-5.89;-8.33;74.43;50.13;63.81;2
-5.01;-5.8;-9.79;75.63;57.82;84.31;2
-5.55;-6.28;-11.3;67.2;60.93;108.8;2
-4.75;-6.94;-12.51;59.78;59.85;129.26;2
-3.25;-7.79;-13.02;52.24;54.09;143.73;2
-3.37;-10.35;-13.64;39.47;47.76;161.67;2
-3.52;-12.87;-14.06;25.78;41.73;171.76;2
-2.98;-13.65;-14.59;11.08;29.57;167.11;2
-2.32;-12.83;-15.28;-13.18;20.15;156.04;2
-1.91;-12.17;-15.02;-46.5;20.58;143.91;2
-1.78;-12.72;-12.23;-68.81;21.35;136.93;2
-1.83;-14.8;-9.56;-65.18;2.55;132.74;2
-1.97;-15.67;-9.36;-53.85;-23.94;130.16;2
-2.15;-15.01;-9.63;-50.5;-42.45;122.76;2
-2.41;-13.77;-9.66;-53.78;-58.64;115.25;2
-2.61;-12.94;-10.08;-58.04;-72.63;112.54;2
-2.63;-12.29;-9.98;-61.17;-79.78;111.34;2
-2.39;-12.11;-9.66;-60.02;-84.49;108.33;2
-1.85;-12.19;-8.71;-52.42;-88.3;104.11;2
-1.35;-12.62;-7.83;-39.22;-90.36;97.21;2
-0.58;-12.92;-7.65;-24.49;-86.89;90.08;2
0.04;-12.64;-8.09;-12.15;-73.04;81.07;2
0.89;-12.05;-8.69;-4.99;-47.68;70.51;2
1.65;-11.65;-8.45;1.59;-20.71;58.13;2
2.27;-11.25;-8.54;8.5;8.79;44.09;2
1.9;-10.44;-8.76;11.12;34.58;27.25;2
0.97;-9.56;-8.54;11.3;48.22;10.54;2
-0.49;-8.84;-8.02;13.21;50.23;-3.72;2
-1.96;-8.17;-7.99;15.39;45.87;-14.94;2
-3.07;-7.64;-8.37;18.37;41.7;-23.88;2
-3.86;-7.41;-8.89;21.85;38.76;-32.2;2
-4.27;-7.29;-9.89;22.66;36.56;-40.15;2
-4.01;-7.41;-10.75;20.61;34.99;-46.8;2
-3.16;-7.62;-11.37;18.57;39.55;-52.53;2
-2.09;-7.51;-12.16;17.52;50.02;-59.24;2
-1.15;-7.19;-12.41;15.72;62.71;-68.63;2
-0.97;-6.57;-12.66;11.84;69.93;-81.55;2
-1.33;-6;-12.47;6.63;70.47;-94.91;2
-2.56;-5.54;-12.02;0.53;65.31;-104.01;2
-3.72;-5.76;-11.68;-2.8;53.72;-108.33;2
-5.17;-6.43;-11.38;-5.14;36.16;-107.56;2
-6.78;-7.05;-10.69;-7.02;15.14;-103.93;2
-8.68;-7.2;-10.35;-4.89;-8.97;-95.12;2
-10.33;-6.08;-11.07;-6.16;-50.68;-78.17;2
-10.18;-4.08;-12.21;-18.31;-102.64;-57.49;2
-8.85;-2.86;-12.9;-37.48;-138.7;-39.5;2
-5.79;-3.07;-11.52;-59.01;-156.65;-24.5;2
0.08;-5.7;-7.31;-67.96;-165.32;-22.75;2
5.22;-10.98;-4.43;-48.87;-130.19;-28.55;2
8.87;-16.19;-4.63;-14.89;-36.49;-29.12;2
7.62;-16.02;-4.97;30.54;101.35;-32.61;2
-2.47;-9.71;-21.04;32.3;100.29;-25.85;2
-13.66;-5.46;-29.22;-74.09;23.88;25.54;2
-9.73;-9.46;-4.2;-102.2;-5.17;71.7;2
1.09;-11.51;2;0.51;-5.47;57.28;2
7;-7.98;-10.5;25.82;12.82;15.43;2
5.91;-7.29;-15.71;7.69;38.73;-20.67;2
0.44;-8.2;-17.13;-19.88;17.67;-43.85;2
-4.53;-11.95;-14.46;-42.24;-21.23;-47.68;2
-5.24;-14.14;-10.33;-38.19;-55.05;-38.05;2
-2.89;-13.4;-9.2;-22.18;-78.62;-34.2;2
-0.26;-11.77;-10.58;-19.94;-76.49;-35.4;2
2.91;-12.55;-9.8;-17.28;-45.84;-42.98;2
5.07;-13.46;-9.84;-9.37;-20.3;-55.7;2
4.71;-14.28;-11.15;-3.7;-4.56;-72.39;2
2.8;-14.01;-11.67;-3.63;4.67;-86.41;2
0.77;-13.84;-11.51;-7.14;9.29;-93.3;2
-0.88;-13.72;-11.09;-5.82;10.45;-94.9;2
-2.3;-13.21;-10.96;-5.28;5.47;-93.68;2
-2.65;-12.84;-10.68;-4.2;0.83;-91.04;2
-1.98;-12.66;-11.06;-1.3;-0.31;-90.45;2
-0.99;-12.46;-11.77;-1.95;-0.91;-89.98;2
-0.3;-12.29;-11.71;-3.58;1.6;-90.11;2
-0.07;-11.93;-11.45;-3.05;5.06;-92.21;2
-0.71;-11.33;-11.29;-1.62;1.97;-94.88;2
-1.73;-11.08;-11.8;-3.51;3.82;-94.89;2
-1.76;-10.43;-11.53;-4.88;13.12;-92.32;2
-1.81;-9.63;-11.63;-4.24;20.82;-90.37;2
-2.19;-9.07;-11.83;-5.31;33;-88.72;2
-2.3;-8.51;-11.77;-4.5;48.11;-87.14;2
-2.86;-7.35;-11.15;-1.53;59.99;-84.78;2
-4.31;-6.67;-10.44;2.92;62.45;-75.92;2
-5.61;-5.88;-9.91;11.73;57.08;-60.52;2
-6.5;-5.42;-10.01;21.84;46.68;-40.56;2
-6.38;-5.45;-10.26;30.24;34.73;-20.57;2
-5.03;-5.95;-9.53;40.77;23.03;-5.4;2
-3.51;-6.33;-10.07;49.91;9.95;7.26;2
-2.17;-6.5;-11.54;52.77;0.24;18.94;2
-1.81;-7.5;-11.38;53.14;13.34;30.29;2
-2.52;-8.88;-10.64;55.89;36.07;40.46;2
-4.01;-9.9;-9.98;61.6;56.22;51.09;2
-5.04;-9.23;-10.36;65.24;61.71;66.58;2
-4.76;-7.93;-11.86;59.07;45.58;82.86;2
-4.73;-8.18;-13.84;41.52;19.51;102.08;2
-3.55;-9.05;-13.24;19.6;5.33;122.19;2
-2.42;-11.23;-12.33;2.43;-0.7;135.96;2
-1.56;-13.25;-11.62;-4.44;-9.68;139.66;2
-0.64;-13.74;-11.62;-6.3;-22.1;134.57;2
-0.33;-13.28;-11.36;-9.5;-30.37;128.29;2
-0.12;-12.97;-10.5;-10.5;-17.94;125.05;2
0.34;-13.12;-9.95;-6.41;4.23;124.38;2
0.66;-12.98;-9.77;-4.68;16.24;125.54;2
0.82;-12.38;-9.65;-6.08;12.19;126.15;2
0.79;-11.6;-9.68;-9.18;0.32;126.19;2
1.54;-11.11;-9.43;-11.72;-8.56;125.48;2
1.22;-11.3;-9.36;-12.1;-16.49;120.83;2
0.17;-11.49;-9.5;-11.42;-20.99;114.06;2
-0.76;-11.42;-9.79;-10.89;-19.94;110;2
-1.29;-10.87;-10.18;-12.44;-16.04;107.68;2
-1.33;-10.31;-10.25;-13.65;-14.49;106.25;2
-0.57;-9.84;-9.93;-13.31;-8.09;103.26;2
0.81;-9.87;-9.28;-9.93;0.22;97.18;2
1.8;-9.99;-8.67;-0.98;6.13;85.52;2
2.09;-9.78;-8.55;12.18;13.34;69.43;2
1.82;-9.01;-8.84;24.09;25.13;50.59;2
1.3;-8.22;-9.9;28.29;36.83;29.63;2
0.34;-7.43;-10.17;24.05;39.81;9.15;2
-1.24;-7.01;-9.74;17.92;32.58;-5.98;2
-2.4;-7.4;-9.84;14.58;28.56;-15.38;2
-2.86;-8.25;-10.74;14.45;42.54;-22.43;2
-2.76;-8.81;-11.77;12.58;65.87;-28.94;2
-2.23;-8.62;-12.1;6.44;80.73;-36.63;2
-1.52;-8.38;-11.74;-1.83;83.78;-48.73;2
-2.07;-8.57;-11.77;-3.1;86.54;-65;2
-3.66;-8.45;-12.28;3.12;92.26;-78.01;2
-5.4;-8.08;-12.65;7.59;92.99;-89.63;2
-7.03;-7.75;-12.67;0.53;85.01;-97.88;2
-9.13;-8.16;-11.14;-13.76;58.62;-95.1;2
-11.69;-8.05;-9.4;-23.55;6.02;-75.31;2
-13.79;-7.13;-9.21;-24.15;-66.35;-46.61;2
-13.12;-4.98;-12.15;-29.02;-121.1;-18.5;2
-8.79;-2.95;-15.05;-47.39;-148.66;-0.82;2
-2.18;-1.42;-13.58;-84.38;-167.2;-1.66;2
6.03;-2.63;-7.07;-95.37;-200.75;-20.19;2
13.37;-6.29;-1.15;-48.93;-150.46;-54.13;2
15.52;-10.34;-3.06;1.23;-22.71;-88.79;2
12.41;-19.49;-10.68;37.95;48.94;-102.54;2
0.75;-17.32;-22.04;9.56;94.33;-100.4;2
-12.28;-15.14;-22.64;-62.35;80.69;-63.49;2
-15.5;-13.24;-7.7;-75.98;-5.01;-19.93;2
-9.58;-11.7;-1.09;-14.57;-104.7;-0.41;2
-1.23;-8.67;-8.39;17.18;-93.33;-0.92;2
4.44;-7.42;-14.59;7.91;-56.2;-9.32;2
7.71;-7.81;-13.78;-9.05;-24.39;-23.09;2
7.6;-9.68;-10.71;-7.98;7.34;-43.17;2
5.31;-11.54;-11.65;-2.4;23.68;-62.88;2
2.56;-12.08;-13.86;-4.23;17.66;-74.66;2
0.58;-11.29;-13.84;-15.08;-3.6;-82.07;2
-0.46;-10.62;-13.3;-23.39;-29.96;-88.46;2
-0.41;-10.05;-12.88;-29.74;-39.65;-91.4;2
0.56;-9.95;-11.42;-34.59;-35.94;-90.42;2
2.14;-10.89;-10.19;-33.92;-21.75;-92.91;2
3.52;-12.7;-9.45;-26.95;2.19;-98.08;2
3.64;-14.03;-9.41;-16.77;22.09;-105.2;2
2.85;-14.44;-9.2;-9.25;35.56;-109.37;2
1.7;-14.55;-9.85;-3.1;47.05;-110.09;2
0.42;-13.78;-10.64;-1.5;52.64;-111.04;2
-1.23;-13.8;-10.71;0.4;55.2;-109.42;2
-1.6;-13.4;-10.94;4.1;60.72;-104.7;2
-1.9;-12.75;-11.23;6.43;64.14;-101.07;2
-2.53;-11.53;-11.67;7.9;64.31;-98.06;2
-4.59;-10.28;-11.3;12.27;68.76;-88.15;2
-6.69;-9.36;-10.94;22.01;70.61;-66.79;2
-7.42;-8.32;-11.64;31.95;64.31;-40.35;2
-7.59;-7.64;-12.47;34.08;57.08;-12.68;2
-7.22;-7.69;-11.62;35.18;48.27;9.45;2
-7;-7.92;-10.88;38.49;28.1;28.05;2
-6.19;-7.75;-11.86;41.13;-1.97;44.28;2
-5.68;-8.07;-11.94;41.71;-26.87;59.31;2
-4.61;-8.72;-10.24;42.05;-30.32;74.05;2
-2.53;-9.66;-7.86;51.63;-9.38;84.33;2
-0.33;-10.02;-8.6;61.41;10.16;87.47;2
1.25;-9.6;-10.13;64.35;24.81;80.92;2
0.25;-8.42;-10.88;61.29;38.42;71.53;2
-1.59;-6.79;-10.54;58.71;48.68;72.44;2
-3.08;-4.87;-11.25;55.82;42.75;80.47;2
-4.37;-3.35;-11.88;47.78;13.84;94.5;2
-4.79;-3.62;-10.57;38.21;-4.89;112.2;2
-4.19;-4.52;-9.76;33.4;-15.71;125.89;2
-2.91;-5.47;-9.75;35.2;-17.69;135.31;2
-1.95;-6.31;-10.44;36.46;2.61;142.54;2
-1.84;-7.88;-11.75;28.85;20.13;150.8;2
-2.13;-10.85;-13.7;9.1;26.93;154.12;2
-2.29;-15.97;-14.7;-10.39;27.36;144.34;2
-1.39;-17.66;-14.42;-11.76;6.35;142.31;2
-0.31;-14.63;-14.86;-14.91;-21.41;145.12;2
-0.36;-12.21;-15.92;-41.83;-33.86;145.73;2
-1.3;-11.43;-14.91;-77.21;-38.41;142.5;2
-2.72;-11.85;-12.06;-96.84;-46.22;140.25;2
-3.94;-13.45;-8.05;-85.64;-58.06;140.88;2
-3.9;-14.83;-6.62;-57.51;-62.93;143.02;2
-3.09;-15.01;-6.78;-36.41;-69.14;137.6;2
-1.67;-14.6;-6.89;-27.24;-74.97;128.58;2
0;-13.97;-7.14;-25.63;-71.31;118.44;2
0.76;-12.96;-7.16;-25.82;-56.48;105.36;2
0.47;-11.89;-7.09;-23.18;-45.33;89.05;2
0.28;-10.95;-7.18;-17.5;-40.65;75.96;2
0.32;-10.85;-7.61;-10.99;-33.52;63.99;2
0.86;-11.42;-8.12;-5.16;-17.32;50.05;2
1.3;-11.65;-8.36;1.47;9.29;33.96;2
1.55;-11;-8.37;9.5;35.93;16.34;2
1.12;-9.86;-8.27;19.01;50.92;-2.61;2
0.23;-8.34;-9.24;26.22;62.39;-20.29;2
-0.85;-7.32;-10.89;28.01;76.46;-34.66;2
-1.46;-7.26;-12.17;23.53;87.38;-48.73;2
-1.62;-7.71;-13.06;15.79;90.1;-61.19;2
-1.13;-8.43;-13.31;6.29;92.09;-74.53;2
-0.88;-8.84;-12.86;-3.73;93.96;-89.33;2
-1.36;-8.81;-12.36;-15.3;94.54;-103.01;2
-2.46;-8.48;-11.82;-20.02;94.83;-111.99;2
-3.87;-7.47;-11.19;-15.73;86.65;-115.18;2
-5.37;-6.39;-10.97;-7.15;68.12;-111.19;2
-6.55;-5.6;-11.15;-2.44;44.91;-102.6;2
-7.57;-5.33;-11.32;-4.53;16.73;-91.27;2
-9.03;-5.83;-10.83;-9.7;-22.96;-75.11;2
-9.97;-5.61;-11.23;-16.92;-73.34;-57.58;2
-10.42;-4.05;-12.53;-32.85;-123.36;-38.69;2
-9.24;-1.69;-13.5;-55.7;-159.72;-18.08;2
-3.87;-0.7;-12.02;-79.62;-179.45;-8.74;2
4.58;-1.6;-5.71;-77.95;-153.81;-23.56;2
12.59;-3.52;0.38;-20.9;-86.68;-63.95;2
13.61;-5.16;-5.32;20.43;-46.5;-109.54;2
6.24;-9.11;-14.57;4;-9.1;-127.25;2
-7.7;-19.55;-20.21;-24.21;40.57;-79.37;2
-13.45;-14.59;-19.46;-34.22;51.35;-20.28;2
-13.13;-8.5;-14.07;-75.2;-27;-5.58;2
-11.22;-11.57;-2.81;-45.11;-123.36;10.16;2
-2.73;-9.62;-3.93;4.43;-134.33;23.49;2
5.66;-6.77;-9.18;7.95;-81.93;19.96;2
10.06;-7.18;-12.22;7.99;-25.2;12.02;2
13.06;-8.83;-15.12;-1.44;35.67;-18.22;2
10.94;-12.14;-15.86;-15.62;90.4;-56.66;2
5.12;-16.07;-14.88;-20.73;92.99;-92.72;2
-1.41;-15.66;-14.39;-18.39;55.57;-110.25;2
-6.39;-12.86;-13.66;-27.88;0.88;-114.21;2
-9.02;-11.48;-10.95;-33.09;-50.54;-105.86;2
-7.28;-11.29;-10.13;-25.31;-86.17;-90.94;2
-2.13;-12.42;-11.43;-25.11;-92.03;-83.41;2
2.05;-14.78;-12.19;-26.2;-69.36;-87.63;2
3.71;-16.01;-11.57;-26.88;-39.84;-95.75;2
2.51;-16.6;-12.53;-28.95;-12.91;-103.79;2
-1.13;-16.6;-10.82;-26.98;11.73;-102.32;2
-3.37;-16.19;-8.89;-17.47;22.24;-96.38;2
-4.71;-15.34;-8.58;-3.38;20.77;-87.76;2
-4.98;-14.11;-9.13;8.93;18.8;-73.39;2
-4.74;-13.21;-10.28;19.02;23.1;-60.37;2
-4.55;-11.94;-11.2;23.7;31.78;-48.43;2
-3.92;-10.75;-10.47;28.3;43.35;-39.43;2
-3.52;-9.66;-10.24;38.79;49.58;-33.3;2
-3.75;-8.51;-10.79;45.61;52.8;-25.5;2
-4.69;-7.77;-11.43;45.3;54.15;-11.85;2
-5.06;-7.13;-10.89;41.6;49.49;4.57;2
-4.73;-7.24;-9.05;45.04;41.46;20.16;2
-4.04;-7.23;-9.62;49.26;31.7;35.58;2
-3.1;-6.75;-11.4;45.95;20.03;47.6;2
-2.94;-6.57;-12.3;42.01;7.03;56.6;2
-2.39;-6.52;-11.69;38.31;3.03;65.13;2
-1.46;-6.7;-10.93;38.26;12.74;74.48;2
-0.55;-6.61;-10.49;38.49;29.48;80.7;2
-0.24;-6.21;-9.76;37.06;43.7;85.14;2
-0.19;-5.92;-9.23;39.11;48.86;88.94;2
-0.48;-6.07;-9.86;39.31;48.78;94.82;2
-0.53;-5.76;-10.64;36.14;42.61;101.01;2
-0.16;-4.98;-10.7;28.47;45.14;102.75;2
0.21;-4.41;-10.4;20.91;50.3;103.67;2
0.53;-4.16;-10.51;17.47;53.01;99.11;2
-0.45;-4.44;-11.12;16.98;46.41;92.51;2
-1.75;-5.01;-12.11;21.82;24.48;90.58;2
-2.57;-5.81;-12.99;24.65;2.47;90.97;2
-3.26;-7.99;-14.19;15.72;-7.81;90.31;2
-4.51;-12.21;-14.77;-3.06;-9.93;83.85;2
-5.35;-17.76;-14.36;-18.22;-19.96;82.04;2
-4.95;-19.55;-13.18;-26.49;-41.24;100.27;2
-2.56;-14.83;-12.73;-34.15;-64.93;114.44;2
-1.04;-11.48;-12.12;-46.21;-70.07;114.39;2
-1.19;-10.33;-10.38;-51.64;-51.65;112.2;2
-1.61;-10.31;-9.64;-46.93;-21.3;110.19;2
-2.28;-11.05;-8.97;-38.74;1.36;106.37;2
-2.66;-12.33;-7.79;-30.15;5.81;101.57;2
-2.69;-13.19;-6.25;-18.69;-5.4;95.46;2
-2.75;-12.55;-5.6;0.11;-11.27;84.96;2
-3.53;-11.27;-6.78;10.97;-10.58;74.5;2
-4.35;-10.46;-8.37;8.92;-7.36;65.64;2
-4.03;-10.85;-8.93;3.24;3.87;57.28;2
-2.97;-11.82;-8.72;3.97;16.29;45.6;2
-1.4;-12.34;-9.12;13.5;31.96;38.09;2
0.76;-11.79;-9.53;25.25;45.03;31.36;2
2.35;-10.24;-10.08;30.09;47.58;13.17;2
1.81;-8.34;-10.71;29.07;52.25;-9.69;2
0.05;-6.94;-11.95;26.82;65.53;-29.56;2
-1.77;-6.41;-13.27;21.75;75.22;-44.26;2
-3.46;-6.39;-14.41;11.47;74.78;-55.63;2
-4.54;-6.96;-15.11;-4.91;68.2;-64.33;2
-4.71;-7.81;-14.34;-23.99;58.65;-72.14;2
-4.93;-9.39;-12.16;-39.37;47.32;-81.03;2
-5.78;-11.05;-9.26;-34.89;26.79;-88.81;2
-8.18;-10.83;-8.38;-12.65;3.51;-88.17;2
-10.52;-8.67;-9.22;3.4;-24.36;-72.99;2
-11.16;-6.39;-10.99;-1.3;-58.99;-51.29;2
-9.96;-4.01;-12.45;-23.37;-85.43;-34.99;2
-7.95;-2.15;-12.4;-47.19;-101.46;-25.34;2
-3.77;-1.53;-10.09;-61.94;-107.04;-24.3;2
3.83;-2.24;-5.33;-54.99;-97.2;-39.92;2
9.51;-3.49;-3.46;-17.84;-76.36;-71.8;2
11.17;-4.45;-7.5;11.85;-54.17;-106.4;2
8.5;-7.3;-13.54;2.67;-14;-128.02;2
2.64;-14.83;-16.53;-29.21;29.5;-119.04;2
-3.11;-19.55;-14.4;-37.94;65.48;-87.88;2
-8.04;-15.94;-10.98;-28.11;93.48;-61.79;2
-14.24;-13.01;-11.66;-28.08;21.49;-27.3;2
-14.11;-10.49;-9.7;-45.41;-72.65;20.33;2
-3.06;-8.51;-4.92;-32.13;-85.97;43.13;2
8.56;-8.69;-5.92;10;-46.51;17.79;2
13.68;-8.39;-10.47;30.02;8.35;-31.64;2
12.84;-8.86;-14.01;22.4;56.49;-78.25;2
7.84;-10.87;-14.32;7;70.49;-110.88;2
1.14;-13.72;-12.58;5.55;64.18;-118.89;2
-3.67;-12.84;-11.52;15.15;43.25;-111.76;2
-6.62;-9.62;-12.9;9.78;-0.98;-98.71;2
-6.52;-8.39;-14.36;-8.06;-45.95;-84.04;2
-4.28;-8.89;-13.59;-21.22;-68.01;-75.98;2
-0.68;-10.16;-11.33;-24.01;-68.21;-77.69;2
2.55;-11.55;-11.05;-17.91;-54.48;-85.54;2
3.76;-12.14;-12.39;-18.74;-35.83;-96.98;2
3.44;-13.29;-12.58;-29.82;-14.11;-103.85;2
2.23;-14.21;-10.72;-34.41;5.56;-105.7;2
1.02;-15.01;-9.03;-24.44;20.38;-104.17;2
-1.37;-14.91;-9.31;-10.7;28.58;-100.47;2
-3.18;-13.87;-10.02;-2.98;31.99;-96.44;2
-3.67;-12.83;-10.64;-1.15;31.9;-89.75;2
-2.74;-12.4;-10.83;-1.34;26.63;-83.21;2
-2.6;-11.56;-10.98;-1.14;20.58;-78.24;2
-3.4;-10.29;-10.27;1.38;19.53;-74.35;2
-4.76;-9.82;-9.26;9.36;22.71;-62.92;2
-5.79;-8.41;-9.67;23.31;24.9;-46.4;2
-7.14;-7.1;-10.98;33.17;17.19;-26.66;2
-7.8;-6.74;-11.3;36.05;4.74;-3.61;2
-7.82;-6.61;-10.03;40.72;-4.4;17.31;2
-7.09;-7.13;-8.54;52.43;-4.15;37.74;2
-5.38;-6.96;-7.6;65.85;9.47;56.83;2
-3.55;-6.81;-7.44;79.24;33.92;74.02;2
-1.93;-7.22;-8.18;84.36;63.67;88.21;2
-0.63;-7.29;-9.83;83.12;77.1;93.77;2
-0.54;-6.89;-12.08;74.63;65.45;93.51;2
-1.35;-6.74;-12.13;67.73;63.32;96.76;2
-1.61;-6.42;-11.98;63.86;70.17;104;2
-2.22;-6.31;-11.85;59.31;71.8;111.04;2
-3.15;-6.52;-11.58;51.47;69.7;117.37;2
-4.47;-8.27;-11.66;42.24;58.51;128.07;2
-5.59;-12.25;-13.68;26.24;36.66;145.18;2
-4.72;-14.96;-14.83;5.22;3.98;157.67;2
-2.21;-15.15;-13.74;-14.49;-17.87;158.6;2
0.02;-14.59;-11.94;-29.96;-25.94;152.79;2
1.34;-14.4;-11.02;-40.24;-28.07;146.09;2
1.11;-14.26;-10.59;-43.33;-23.96;139.84;2
0.2;-13.58;-10.6;-41.41;-16.39;137.75;2
-0.43;-12.55;-10.99;-40.48;-13.68;135.89;2
-0.79;-11.85;-10.96;-43.44;-13.48;132.37;2
-0.57;-11.62;-10.25;-48.92;-17.91;127.61;2
-0.14;-11.26;-9.28;-51.55;-26.09;121.62;2
0.21;-11.02;-8.57;-49.24;-33.85;113.43;2
-0.16;-10.39;-8.04;-41.68;-40.98;103.26;2
-0.88;-9.43;-7.85;-28.63;-48.62;92.35;2
-1.05;-8.37;-8.37;-17.66;-52.97;82.15;2
-0.8;-8.39;-8.02;-7.79;-57.78;71.96;2
-0.3;-8.93;-8.22;-0.4;-52.62;61.41;2
0.29;-9.53;-9.04;2.94;-36.27;50.6;2
1.81;-10.28;-9.77;3.19;-9.09;35.63;2
3.24;-10.28;-9.33;4.53;17.17;15.65;2
3.22;-9.17;-8.57;9.27;31.41;-4.22;2
1.79;-7.56;-8.3;16.21;35.71;-19.04;2
-0.45;-6.41;-9.07;20.38;41.04;-30.8;2
-2.49;-6.5;-10.52;19.14;59.03;-43.03;2
-4.29;-6.71;-12;13.62;78.24;-56.5;2
-5.41;-7.62;-12.79;7.34;79.17;-69.66;2
-5.91;-9.17;-12.69;0.58;72.3;-84.7;2
-6.7;-9.47;-11.88;-4.29;73.84;-95.66;2
-8.18;-9.05;-11.41;-3.66;75.54;-94;2
-9.88;-8.61;-11.46;-5.65;65.31;-78.34;2
-12.03;-9.19;-11.28;-13.18;32.38;-54.56;2
-14.42;-8.92;-11.52;-21.95;-3.49;-30.33;2
-14.3;-6.79;-12.33;-31.01;-31.91;-5.86;2
-9.03;-3.55;-12.1;-46.57;-70.17;4.38;2
-2.62;-1.18;-10.89;-69.79;-115.42;-2.59;2
3.49;-1.68;-7.77;-72.16;-120.77;-26.14;2
9.35;-3.9;-3.16;-40.63;-88.51;-58.87;2
12.56;-8.3;-3.8;4.32;-43.75;-97.9;2
8.76;-16.27;-11.45;9.19;-13.5;-118.46;2
-1.47;-19.55;-15.22;-7.24;15.39;-98.15;2
-11.36;-16.74;-15.95;-31.87;31.83;-47.09;2
-15.61;-11.5;-14.78;-63.93;-11.02;4.25;2
-10.43;-10.51;-5.68;-51.64;-99.95;47.13;2
2.57;-8.3;-3.32;0.46;-98.26;46.96;2
12.26;-6.16;-9.11;11.67;-12.81;11.96;2
15.08;-6.39;-11.88;11.49;54.92;-34.56;2
10.51;-8.36;-14.5;3.6;101.93;-77.06;2
2.7;-11.2;-14.39;-11.46;92.04;-102.12;2
-4.67;-13.97;-12.4;-13.85;50.64;-105.79;2
-8.7;-12.07;-11.67;-0.31;2.78;-94.46;2
-8.55;-8.44;-13.01;-9.77;-58.13;-78.08;2
-4.97;-8.2;-12.24;-25.76;-90.24;-64.95;2
0.46;-10.07;-9.73;-19.14;-82.23;-71.57;2
3.33;-11.57;-10.08;-6.02;-57.18;-80.55;2
4.34;-11.66;-11.48;-4.81;-27.78;-91.56;2
4.35;-12.39;-12.48;-11.31;-1.68;-103.13;2
3.15;-12.74;-12.49;-14.65;16.49;-111.93;2
0.92;-12.81;-11.9;-18.93;22.88;-114.53;2
-1.08;-13.05;-10.27;-19.63;21.36;-113.02;2
-3.03;-13.07;-9.54;-14.03;18.38;-109.46;2
-3.72;-13.31;-10.24;-9.36;15.19;-103.06;2
-2.86;-12.96;-10.59;-7.44;16.04;-95.93;2
-2.01;-12.84;-11.03;-6.04;22.57;-90.7;2
-2.24;-12.42;-11.07;-3.89;25.14;-89.51;2
-3.18;-11.96;-11.05;-0.83;27.58;-89.79;2
-3.91;-11.19;-10.5;2.44;25.1;-87.35;2
-4.67;-9.91;-9.98;6.14;22.32;-84.26;2
-5.92;-8.87;-9.97;9.68;21.07;-73.46;2
-7.49;-7.56;-10.06;17.79;28.19;-54.41;2
-9.14;-6.56;-10.22;32.01;33.01;-30.27;2
-9.97;-5.89;-10.19;44.21;32.95;-1.2;2
-9.49;-5.55;-9.2;52.05;30.7;26.22;2
-8.38;-5.8;-7.68;63.07;29.09;49.24;2
-6.64;-5.97;-7.24;77.73;34.06;70.14;2
-4.74;-5.96;-7.84;88.13;45.9;86.6;2
-3.1;-5.43;-10.16;88.59;54.02;95.68;2
-3.28;-5.52;-12.55;78.39;59.19;107.69;2
-2.83;-5.4;-12.95;70.5;70.46;120.53;2
-2.4;-6;-12.54;66.94;75.09;132.08;2
-2.78;-7.46;-12.84;57.94;70.9;144.27;2
-4.3;-10.3;-13.06;41.72;66.57;154.21;2
-5.74;-13.83;-13.48;26.07;48.32;166.77;2
-5.67;-16.02;-14.76;10.06;14.02;177.04;2
-3.63;-15.2;-15.57;-9.5;-26.69;178.05;2
-1.17;-13.32;-15.33;-37.3;-50.13;169.42;2
0.37;-12.84;-12.83;-65.86;-43.45;160.56;2
0.81;-14.47;-8.58;-68.27;-11.88;156.09;2
0.92;-15.16;-7.9;-50.18;-5.16;155.31;2
0.15;-14.44;-8.9;-38.11;-8.81;154.58;2
-0.76;-13.35;-9.9;-37.73;-12.3;150.96;2
-1.34;-12.21;-10.82;-45.73;-15.53;145.24;2
-1.15;-11.21;-10.91;-56.15;-23.52;136.94;2
-0.68;-10.6;-10.49;-63.95;-37.52;123.98;2
-0.31;-10.35;-9.47;-64.64;-55.13;106.3;2
0.19;-10.46;-9.03;-58.34;-71.52;86.83;2
0.38;-10.68;-8.97;-49.35;-82.78;66.13;2
0.54;-11.04;-8.88;-41.15;-89.11;47.11;2
1;-11.62;-8.57;-33.61;-82.11;34.59;2
2.15;-12.05;-8.33;-22.9;-59.34;25.36;2
3.48;-11.55;-8.75;-11.19;-20.55;17.21;2
5.04;-10.39;-8.64;-2.26;13.11;4.52;2
6.42;-8.74;-7.98;-0.66;29.48;-23.4;2
5.58;-7.53;-6.06;2.21;29.39;-62.53;2
1.66;-7.04;-5.65;13.63;37.65;-96.42;2
-3;-7.07;-6.74;32.31;66.44;-115.3;2
-5.58;-7.54;-8.64;49.62;88.46;-117.21;2
-7.4;-8.36;-10.87;56.34;96.75;-112.17;2
-8.18;-9.49;-12.41;53.13;101.51;-102.82;2
-8.73;-9.54;-15.43;52.52;132.38;-83.17;2
-8.69;-9.04;-19.64;25.75;187.96;-65.78;2
-9.83;-6.73;-17.32;-22.98;181.76;-46.89;2
-11.33;-6.82;-12.31;-51.11;104.95;-30.24;2
-12.92;-6.9;-11.07;-47.06;29.24;-19.04;2
-10.83;-3.88;-13.37;-42.26;-45.2;-11.03;2
-4.98;-0.9;-13.62;-60.7;-115.97;-9.9;2
3.38;0.16;-8.88;-77.91;-168.65;-25.46;2
11.67;-4.47;-3.6;-55.38;-207.6;-63.96;2
12.58;-14.78;-6.07;-28.57;-170.29;-95.21;2
6.28;-19.55;-5.2;-7.63;-30.46;-90.45;2
-3.2;-16.09;-5.5;36.32;78.32;-80.05;2
-14.23;-9.59;-24.83;-15.34;8.02;-42.52;2
-16.23;-7.87;-21.24;-95.53;-59.07;33.08;2
-1.16;-11.63;-1.87;-55.53;-102.83;52.3;2
10.43;-10.92;-1.56;9.98;-54.4;17.41;2
14.23;-8.49;-9.55;36.74;32.14;-25.77;2
10.83;-7.1;-14.25;30.59;90.31;-57.39;2
2.6;-8.32;-15.17;2.41;93.63;-75.5;2
-3.3;-12.05;-12.39;-6.56;64.59;-80.16;2
-4.98;-13.29;-11.26;3.13;20.2;-78.04;2
-4.94;-10.91;-12.25;9.06;-38.6;-77.04;2
-3.72;-9.86;-14.07;-5.18;-85.1;-76.69;2
-1.58;-10.47;-13.2;-16.85;-92.23;-77.06;2
2.01;-11.01;-11.21;-15.12;-71.89;-79.98;2
4.93;-11.54;-11.24;-12.5;-38.57;-90.05;2
5.2;-12.61;-12.06;-15.68;-7.05;-103.28;2
4;-12.99;-11.84;-16.18;17.45;-113.79;2
2.03;-13.12;-11.12;-14.56;32.13;-118.14;2
0.26;-13;-10.73;-12.5;37.99;-115.48;2
-0.55;-12.85;-10.06;-8.69;41.29;-112.45;2
-0.72;-12.95;-10.46;-6.01;46.22;-110.67;2
-0.69;-13.14;-10.76;-2.87;55.88;-110.92;2
-1.01;-12.94;-11.45;2.6;64.32;-111.84;2
-1.88;-12.35;-11.39;4.82;67.03;-113.94;2
-3.05;-11.62;-11.05;7.49;58.89;-113.39;2
-4.33;-10.59;-10.46;10.08;49.27;-108.32;2
-5.58;-9.51;-10.14;11.43;45.41;-98.69;2
-6.73;-8.34;-10.2;13.69;42.96;-83.15;2
-7.63;-7.89;-10.51;22.09;42.8;-59.28;2
-8.47;-7.79;-11.16;34.15;33.55;-31.59;2
-9.02;-7.05;-10.52;41.7;23.13;-6.3;2
-9;-6.28;-9.48;49.44;11.62;15.7;2
-8.21;-5.68;-9.28;58.34;6.7;36.84;2
-7.19;-5.23;-9.66;64.94;12.22;58.05;2
-5.97;-5.78;-8.83;73.52;33.1;77.83;2
-4.66;-6.18;-8.31;84.44;60.41;94.45;2
-3.52;-6.52;-9.46;86.81;79;107.96;2
-3.21;-7;-12.35;77.05;81.47;116.9;2
-4.88;-8.14;-14.17;59.14;63.71;133.67;2
-5.18;-9.12;-14.34;43.01;38.75;152.73;2
-4.6;-10;-13.44;28.69;7.67;166.89;2
-4.23;-10.92;-13.5;9.01;-14.2;172.57;2
-3.88;-11.73;-13.18;-15.93;-19.4;172.49;2
-2.87;-12.74;-12.72;-36.49;-28.88;171.89;2
-1.88;-14.62;-11.67;-46.48;-35.94;169.49;2
-0.97;-15.13;-10.61;-40.9;-39.17;169.3;2
0.03;-14.14;-10.04;-34.59;-45.67;170.12;2
0.43;-13.88;-9.41;-32.31;-36.3;170.16;2
0.43;-14;-9.2;-31.46;-29.79;169.32;2
0.02;-13.62;-9.31;-32.15;-30.01;166.95;2
-0.72;-13.01;-9.12;-32.09;-27.46;162.22;2
-1.13;-12.49;-9.26;-30.77;-23.37;156.31;2
-1.29;-11.46;-9.35;-29.26;-25.81;147.86;2
-1.33;-10.8;-9.11;-27.65;-37.01;136.87;2
-1.34;-10.8;-8.78;-25.28;-50.48;124.92;2
-1.02;-11.15;-8.54;-21.24;-58.43;113.21;2
-0.5;-11.65;-8.21;-13.94;-59.38;102.13;2
0.43;-11.76;-8.82;-6.87;-49.14;87.86;2
1.31;-11.66;-9.22;-0.61;-32.49;72.08;2
1.92;-11.29;-8.85;5.14;-19.15;53.15;2
1.54;-10.38;-8.84;10.68;-4.35;33.35;2
1.31;-9.21;-9.47;11.33;21.6;11.07;2
0.35;-8.14;-9.56;5.5;41.94;-13.17;2
-0.94;-7.19;-8.66;0.08;43.9;-36.07;2
-2.81;-6.99;-8.08;-1.32;35.91;-52.99;2
-4.03;-7.12;-8.52;-0.53;30.03;-67.37;2
-4.55;-7.8;-9.56;2.21;31.57;-81.2;2
-3.89;-9.33;-11.31;0.09;46.13;-96.57;2
-3.28;-11.28;-12.07;-4.04;67.49;-110.51;2
-2.69;-12.45;-12.62;-1.44;88.79;-116.3;2
-1.86;-11.49;-13.19;7.38;108.08;-116.82;2
-1.45;-8.89;-13.82;10.37;130;-118.41;2
-2.03;-7.32;-14.04;1.98;132.78;-117.94;2
-4.23;-8.35;-12.78;-13.57;110.96;-114.64;2
-9.65;-10.9;-10.26;-18.04;72.88;-97.62;2
-15.69;-11.44;-10.31;-16.05;34.25;-65.81;2
-19.7;-8.6;-11.85;-21.59;-12.34;-19.51;2
-19.7;-4.9;-12.15;-39.45;-74.36;27.82;2
-14.35;-2.35;-12.44;-60.32;-117.01;61.25;2
-4.98;-2.26;-10.12;-70.35;-123.14;72.19;2
4.68;-3.39;-6.63;-59.46;-111.11;55.55;2
10.67;-4.73;-5.65;-33.03;-81.68;22.41;2
11.2;-5.09;-8.37;-13.44;-28.09;-11.19;2
8.17;-4.61;-11.87;-17.36;16.36;-37.26;2
4.42;-4.65;-14.7;-25.4;-0.06;-62.08;2
0.94;-4.77;-15.35;-32.52;-47.45;-88.65;2
-1.44;-5.13;-13.81;-37.37;-79.2;-110.14;2
-0.79;-4.74;-11.26;-43.25;-95.03;-124.95;2
1.58;-4.1;-7.89;-43.82;-108.26;-135.11;2
2.33;-4.36;-5.5;-38.43;-119.52;-142.24;2
-0.12;-7.13;-3.13;-29.79;-110.36;-138.85;2
-6.45;-16.17;-3.88;-3.65;-50.53;-107.37;2
-16.24;-19.55;-13.63;21.51;14.34;-42.74;2
-13.92;-9.18;-24.92;-30.02;-0.2;3.48;2
-3.25;-7.81;-15.33;-104.79;-86.9;14.32;2
2.98;-13.29;-1.68;-54.97;-116.71;4.44;2
4.79;-11.7;-4.75;18.97;-87.72;-12.03;2
3.94;-6.4;-12.94;36.51;-43.76;-8.5;2
7.65;-3.56;-19.64;9.21;23.5;-12.66;2
10.76;-6.82;-23.67;-53.67;89.06;-41.24;2
9.81;-15.96;-19.06;-102.25;94.34;-79.59;2
5.86;-19.55;-8.11;-74.77;59.69;-117.78;2
1.25;-17.49;-8.91;-31.54;10.99;-150.01;2
-5.68;-14.66;-10.18;-25.25;-25.23;-144.3;2
-7.55;-13.87;-9.9;-23.08;-43.5;-119.4;2
-4.16;-15.31;-9.67;-16.79;-38.89;-98.56;2
0;-17.2;-8.79;-5.58;-25.44;-88.98;2
0.34;-18.24;-9.8;14.72;0.42;-84.67;2
-1.09;-16.79;-11.44;20.14;27.06;-79.45;2
-2.81;-16.39;-11.44;21.21;43.47;-73.18;2
-3.66;-14.6;-10.16;26.98;58.18;-62.78;2
-3.1;-13.23;-10.89;36.96;67.92;-51.73;2
-2.01;-11.41;-12.28;44.08;80.03;-42.17;2
-1.17;-9.97;-13.46;47.99;98.93;-35.34;2
-2.06;-8.88;-13.63;49.6;116.14;-28.46;2
-3.69;-8.31;-12.45;52.43;126.71;-21.46;2
-5.47;-8.23;-10.64;57.32;120.08;-11.62;2
-7.23;-7.99;-10.08;59.27;93.6;-1.38;2
-8.01;-7.07;-10.31;54.42;51.29;13.79;2
-7.53;-5.98;-11.09;47.74;2.41;30.31;2
-6.23;-4.94;-11.63;38.42;-39.12;43.91;2
-4.97;-5.61;-10.56;33.34;-50.58;61.46;2
-3.46;-6.39;-10.08;35.01;-41.88;76.77;2
-2.44;-6.43;-10.46;37.46;-25.1;90.47;2
-1.38;-6.16;-10.83;39.68;5.19;98.79;2
-0.81;-6.16;-10.6;42.89;35.57;106.27;2
-0.17;-6.17;-10.45;45.72;58.45;112.25;2
-0.24;-6.71;-10.83;46.05;72.45;118.86;2
-0.4;-6.69;-11.41;42.21;77.96;122.72;2
-0.65;-6.18;-11.5;37.98;81.25;123.05;2
-1.33;-5.76;-11.34;34.48;76;120.05;2
-1.55;-5.22;-11.14;30.16;65.41;115.47;2
-2.21;-5.16;-11.07;23.18;62.48;111.26;2
-3.19;-6.07;-11.34;16.8;58.71;112.96;2
-4.46;-8.47;-12.13;8.38;38.43;116.54;2
-5.65;-12.94;-13.29;-4.05;5.66;111.54;2
-5.79;-16.43;-13.55;-7.98;-31.59;108.7;2
-5.16;-15.49;-13.41;-6.74;-69.31;120.92;2
-3.64;-14.01;-14.4;-21.53;-91.26;136.46;2
-1.72;-13.33;-14.93;-50.34;-92.51;143.83;2
-0.27;-13.28;-13.77;-70.81;-84.28;138.9;2
0.21;-13.95;-11.06;-69.73;-74.74;126.86;2
0.23;-14.7;-8.84;-50.25;-60.36;118.19;2
0.24;-14.98;-8.62;-34.21;-42.54;110.21;2
0.08;-14.5;-8.32;-29.57;-30.71;98.75;2
-0.49;-12.81;-8.45;-28.18;-18.76;85.67;2
-1.42;-10.9;-8.13;-25.99;-10.34;75.06;2
-3.01;-9.73;-8.34;-24.38;-11.98;63.4;2
-4.15;-8.71;-8.63;-21.44;-20.73;52.94;2
-3.72;-8.6;-8.97;-19.24;-25.04;40.18;2
-2.3;-9.36;-9.37;-18.63;-16;23.86;2
-1.39;-9.95;-8.74;-14.64;-6.75;7.79;2
-0.51;-10.01;-8.12;-6.11;-6.08;-5.3;2
0.06;-9.19;-7.89;2.58;-9.3;-18.58;2
0.27;-7.64;-8.57;9.14;-3.7;-33.94;2
0.16;-6.51;-8.83;13.53;1.48;-50.69;2
-0.51;-6.08;-9.13;14.08;1.86;-66.02;2
-1.28;-6.39;-9.95;12.05;8.29;-77.47;2
-2.22;-7.65;-10.73;6.29;17.99;-87.17;2
-3.11;-9.9;-10.46;-0.01;28.65;-94.14;2
-4.06;-11.65;-9.22;-0.5;35.76;-94.82;2
-4.94;-12.36;-8.17;9.95;48.18;-88.93;2
-6.59;-10.67;-10.58;26.79;73.35;-76.68;2
-7.46;-7.58;-15.11;28;91.7;-59.88;2
-7.29;-5.12;-17.4;4.01;89.74;-43.98;2
-6.54;-3.91;-15.85;-29.16;78.05;-36.46;2
-4.97;-2.97;-12.38;-53.35;52.64;-37.63;2
-2.25;-2.19;-8.86;-61.81;13.06;-47.27;2
0.1;-2.41;-6.56;-53.22;-19.69;-62.45;2
1.6;-3.25;-5.47;-28.98;-22.03;-80.59;2
2.78;-6.3;-5.51;-7.82;-17.36;-100.3;2
2.21;-13.23;-8.4;6.69;-24.39;-118.76;2
-1.99;-19.43;-11.59;15.62;-44.47;-114.21;2
-7.85;-13.78;-14.06;-0.53;-50.43;-76.78;2
-14.42;-10.99;-15.81;-50.32;-38.2;-22.57;2
-14.12;-10.25;-12.58;-74.79;-82.65;29.94;2
-5.99;-9.65;-7.32;-60.03;-139.23;69.92;2
6.41;-8.34;-4.62;-27.16;-95.2;62.16;2
16.28;-7.7;-6.46;5.82;14.32;17.66;2
17.47;-7.17;-11.38;25.47;94.21;-36.56;2
11.36;-7.44;-14.96;17;124.59;-81.97;2
0.42;-9.58;-13.63;-4.11;100.89;-102.89;2
-7.89;-13.24;-11.22;-6.01;52.35;-92.82;2
-10;-12.59;-9.55;5.32;13.54;-70.53;2
-7.24;-9.9;-11.71;1.77;-39.23;-52.27;2
-2.77;-9.36;-14.09;-8.7;-72.38;-51.34;2
1.12;-10.8;-13.28;-14.79;-63.51;-65.89;2
4.6;-11.75;-11.56;-14.86;-42.1;-80.31;2
5.48;-12.56;-11.62;-14.92;-15.49;-100.94;2
4.02;-13.43;-11.59;-16.23;9.74;-116.76;2
1.04;-13.59;-11.46;-16.78;27.45;-121.98;2
-1.16;-13.21;-11;-17.44;28.29;-118.25;2
-2.6;-13.75;-10.56;-16.82;15.81;-114.27;2
-3.18;-14.29;-10.22;-15.58;7.28;-109.66;2
-2.94;-14.61;-9.79;-9.73;5.7;-106.5;2
-3.02;-14.16;-10.02;-2.37;7.28;-103.67;2
-4.08;-13.39;-10.98;1.07;9.35;-97.59;2
-5.11;-11.99;-11.18;0.3;8.55;-90.33;2
-5.82;-11.04;-10.94;1.13;3.41;-81.91;2
-6.22;-10.33;-10.82;3.08;-5.49;-72.29;2
-6.61;-9.61;-10.38;4.96;-10.86;-57.09;2
-7.09;-8.64;-9.77;12.99;-6.32;-40.39;2
-7.97;-7.79;-9.86;25.98;-4.93;-22.09;2
-8.09;-6.69;-10.08;34.54;-3.59;-1.88;2
-7.83;-6.05;-9.47;42.59;3.03;18.25;2
-6.91;-5.95;-8.33;55.66;14.47;38.15;2
-5.56;-5.77;-7.79;70.07;27.23;58.15;2
-4.05;-5.48;-8.09;78.03;38.46;75.8;2
-3.4;-5.08;-9.74;78.15;41.74;87.32;2
-3.85;-5.23;-11.36;71.73;41.63;100.26;2
-3.8;-5.69;-12.06;65.21;46.88;113.98;2
-2.83;-5.89;-11.38;61.92;51.03;122.96;2
-1.74;-5.85;-11.42;60.27;50.69;125.75;2
-1.58;-6.05;-11.93;55.16;48.91;127.12;2
-2.6;-7.5;-12.58;45.69;46.58;133.44;2
-4.63;-11.33;-14.01;31.36;41.17;145.68;2
-5.57;-15.44;-15.39;16.63;27.11;157.67;2
-4.2;-15.03;-15.44;7.05;-0.15;163.84;2
-1.68;-12.89;-14.37;-10.38;-16.52;162.94;2
0.27;-13;-12.64;-35.39;-16.95;159.6;2
1.05;-14.57;-10.84;-50.31;-17.07;151.42;2
0.3;-15.49;-9.72;-49.07;-13.88;145.34;2
-0.97;-15.07;-9.89;-42.16;-11.68;141.48;2
-1.96;-13.65;-10.47;-42.24;-16.57;139.41;2
-2.3;-12.74;-10.83;-49.81;-26.64;137.35;2
-2.23;-12.5;-10.06;-57.1;-39.84;132.25;2
-1.52;-12.26;-9.11;-58.6;-49.69;125.04;2
-0.53;-11.74;-8.05;-53.67;-58.81;114.12;2
-0.16;-11.16;-6.98;-41.27;-74.41;97.43;2
-0.26;-10.84;-6.97;-22.71;-87.55;81.16;2
-0.38;-10.35;-8.09;-10.53;-86.71;66.22;2
0.21;-10.82;-7.98;-1.33;-80.38;55.28;2
1.48;-11.58;-8.38;5.85;-63.68;42.47;2
2.42;-11.72;-9.26;10.06;-40.59;29.55;2
3.42;-10.63;-9.38;12.93;-14.72;14.81;2
3.59;-9.02;-8.87;15.22;5.63;-0.87;2
2.68;-7.26;-8.38;16.42;20.72;-17.47;2
1.1;-5.97;-8.15;15.59;40.67;-32.2;2
-1.5;-5.61;-8.23;19.87;62.3;-43.43;2
-3.87;-6.02;-9.49;20.79;73.5;-53.82;2
-6.33;-7.1;-11.36;12.29;75.49;-62.56;2
-7.63;-9.9;-12.5;0.11;60.16;-66.51;2
-8.22;-12.64;-12.32;-2.76;45.44;-69.45;2
-7.53;-12.83;-11.94;5.23;52.8;-69.33;2
-5.78;-10.25;-12.19;7.31;84.85;-66.14;2
-4.45;-7.59;-11.32;-2.24;105.13;-65.43;2
-4.69;-6.86;-9.74;-11.87;93.38;-64.34;2
-6.55;-7.41;-8.73;-12.79;71.41;-59.01;2
-8.37;-7.46;-9.44;-6.1;48.28;-49.49;2
-9.5;-6.01;-11.59;-0.31;26.23;-34.49;2
-8.19;-3.92;-13.65;-5.68;0.58;-21.3;2
-5.1;-1.47;-14.23;-28.83;-35.38;-19.26;2
-1.42;0.09;-13.25;-58.51;-74.47;-29.47;2
3.19;-0.41;-9.13;-72.2;-91.88;-50.2;2
7.89;-2.63;-3.31;-51.77;-73.97;-81.21;2
9.19;-6.33;-3.61;-11.14;-47.71;-114.47;2
5.25;-11.24;-9.46;6.38;-17.88;-135.59;2
-3.44;-19.55;-14.86;-0.96;3.99;-116.76;2
-14.72;-18.82;-18.49;-13.84;24.03;-63.06;2
-19.7;-9.67;-20.21;-71.63;1.16;4.15;2
-14.44;-10.28;-6.24;-84.34;-128.42;57.62;2
-0.26;-9.12;-2.89;-34.51;-189.56;71.6;2
13;-8.42;-6.17;7.47;-116.63;38.41;2
17.97;-7.71;-9.44;29.92;-6.07;-14.7;2
15.8;-6.87;-14.94;26.06;81.75;-56.05;2
9.11;-7.13;-17.38;1.29;123.75;-88.01;2
1.02;-9.38;-15.38;-25.11;107.11;-103.23;2
-5.13;-14.73;-11.13;-29.11;75.88;-96.09;2
-6.77;-14.71;-8.37;-7.76;23.29;-81.03;2
-6.43;-11.33;-10.21;5.69;-40.68;-73.79;2
-4.46;-9.78;-14.24;-1.25;-74.8;-69.88;2
0.03;-10.18;-13.57;-17.33;-71.84;-75.79;2
3.08;-12.37;-11.35;-21.04;-49.68;-84.67;2
3.83;-13.99;-11.34;-14.94;-18.88;-98.01;2
2.39;-14.42;-12.39;-19.6;9.35;-105.01;2
0.26;-14.37;-11.71;-23.7;30.01;-103.69;2
-2.55;-15.04;-10.53;-19.44;37.99;-99.92;2
-4.52;-14.92;-9.71;-11.74;33.25;-92.61;2
-5.01;-14.82;-9.66;-4.35;23.01;-82.88;2
-4.62;-14.24;-10.28;3.11;13.46;-73.86;2
-3.81;-13.17;-10.67;9.71;13.65;-69.91;2
-4.27;-12.19;-11.31;11.13;18.71;-62.88;2
-4.8;-11.54;-10.84;13.73;21.03;-53.4;2
-5.1;-10.8;-10.56;19.25;22.17;-42.25;2
-5.54;-9.74;-10.17;25.45;26.79;-31.76;2
-6.28;-8.63;-9.96;31.53;24.54;-18.01;2
-7.22;-7.87;-9.35;36.35;24.07;-0.62;2
-7.94;-7.29;-8.83;44.62;24.66;19.11;2
-7.64;-7.1;-9.28;50.58;27.19;40.12;2
-6.51;-7.18;-10.15;52.08;26.99;61.28;2
-5.75;-7.22;-12.13;49.3;14.24;78.16;2
-4.97;-7.12;-12.28;43.94;4.45;89.49;2
-3.85;-6.79;-11.7;42.65;4.04;99.15;2
-2.08;-6.04;-10.98;38.61;12.49;105.4;2
-1.14;-5.46;-9.82;32.62;27.86;107.27;2
-0.83;-5.6;-9.79;31.22;41.9;109.54;2
-1.23;-5.52;-11.4;28.49;49.15;111.3;2
-1.96;-5.87;-12.86;20.76;50.03;111.3;2
-2.29;-5.71;-13.13;13.92;48.09;108.7;2
-2.06;-5.4;-12.53;10.67;43.46;106.07;2
-1.94;-5.55;-11.04;9.07;37.95;104.53;2
-2.12;-5.76;-10.04;10.89;30.19;104.03;2
-2.58;-6.26;-9.82;14.85;20.52;105;2
-3.06;-7.11;-10.49;16.44;9.22;107.64;2
-3.88;-9.36;-12.17;8.94;-1.41;107.5;2
-4.6;-13.52;-13.58;-4.82;-7.99;99.29;2
-4.66;-16.09;-13.65;-12.16;-21.11;97.4;2
-3.81;-15.63;-13.41;-20.4;-41.59;108.8;2
-2.22;-14.5;-13.93;-39.26;-56.17;116.99;2
-0.83;-13.03;-13.32;-60.96;-55.97;114.18;2
-0.76;-12.21;-11.55;-71.21;-47.22;105.68;2
-1;-12.21;-9.69;-64.99;-42.71;97.62;2
-1.19;-12.79;-8.37;-50.24;-44.66;90.89;2
-1.48;-13.26;-7.81;-37.11;-48.69;80.12;2
-1.78;-12.82;-7.59;-30.07;-47.74;66.65;2
-2.36;-11.69;-7.21;-23.86;-48.13;54.9;2
-3.26;-10.16;-7.28;-18.47;-57.01;44.8;2
-3.71;-8.95;-7.69;-14.57;-67.91;38.21;2
-3.69;-8.95;-7.93;-11.5;-70.86;31.92;2
-3.07;-9.64;-8.27;-5.5;-63.04;23.6;2
-1.72;-10.23;-8.69;1.81;-46.49;13.17;2
-0.24;-10.55;-8.53;9.14;-30.65;2.53;2
0.87;-10.53;-8.38;18.61;-24.46;-5.95;2
1.61;-9.96;-8.93;28.53;-16.99;-16.02;2
0.85;-8.67;-9.69;33.6;0.99;-30.71;2
-0.57;-7.23;-10.53;28.14;22.48;-46.11;2
-1.83;-6.34;-11.13;14.56;37.27;-57.75;2
-2.82;-6.55;-11.38;0.47;43.49;-63.99;2
-3.67;-7.47;-11.38;-8.06;52.58;-67.33;2
-4.8;-9.15;-11.17;-10.7;67.45;-71.52;2
-6.63;-10.05;-10.49;-8.9;82.54;-73.43;2
-8.25;-10.04;-10.28;-2.9;90.35;-68.99;2
-9.31;-9.2;-11.2;4.31;86.7;-56.69;2
-9.39;-7.37;-13.14;4.6;68.94;-40.32;2
-7.87;-5.24;-14.09;-8.73;43.19;-27.64;2
-6.29;-3.97;-13.53;-26.47;18.5;-22.85;2
-4.01;-3.47;-12.41;-44.01;1.3;-24.27;2
-0.82;-3.69;-11.07;-53.45;-10.62;-32.04;2
2.56;-4.15;-9.28;-54.76;-30.67;-48.74;2
5.33;-5.44;-6.55;-49.77;-62.25;-71.85;2
6.79;-9.84;-5.97;-34.85;-77.76;-98.72;2
4.34;-18.01;-7.41;-9.86;-59.82;-110.95;2
0.13;-15.21;-8.93;9.37;-11.06;-89.97;2
-6.92;-10.26;-11.16;4.05;60.31;-62.17;2
-15.2;-8.58;-20.02;-32.89;67.21;-26.92;2
-16.28;-7.38;-22.42;-91.31;-23.98;35.37;2
-3.94;-9.45;-8.02;-94.39;-85.17;65.37;2
11.73;-11.95;0.69;-28.92;-69.6;34.45;2
15.53;-9.9;-5.12;25.42;-2.97;-20.32;2
11.98;-7.21;-11.43;30.56;76.2;-64.46;2
4.3;-7.55;-13.12;16.11;95.73;-88.55;2
-3.45;-9.66;-12.81;4.79;74.93;-92.84;2
-6.49;-12.07;-10.37;9.58;41.99;-80.28;2
-5.3;-11.68;-9.96;25.4;3.58;-66.26;2
-2.02;-10.35;-11.83;27.93;-19.87;-59.25;2
-0.99;-10.05;-13.7;16.71;-13.35;-59.85;2
0.32;-9.87;-13.96;9.08;14.8;-63.61;2
1.9;-10.21;-13.45;4.82;35.95;-73.41;2
1.69;-11.32;-13.61;-1.01;46.16;-88.4;2
-0.29;-12.53;-14.27;-7.52;53.29;-102.04;2
-2.68;-12.81;-13.67;-17.22;42.83;-106.47;2
-3.49;-13.5;-11.21;-20.81;21.04;-105.1;2
-3.77;-14.72;-10.62;-12.77;0.48;-104.9;2
-3.68;-14.91;-10.64;-9.16;-18.21;-106.1;2
-2.86;-15.33;-10.76;-8.09;-27.01;-105.05;2
-1.59;-15.08;-10.19;-7.34;-19.41;-103.96;2
-2.22;-15.45;-9.7;-1.63;-11.99;-101.11;2
-3.5;-14.16;-9.42;5.09;-1.17;-94.86;2
-4.2;-13.15;-9.41;10.79;5.83;-85.13;2
-3.86;-11.65;-9.67;14.63;8.19;-73.36;2
-3.52;-10.31;-10.15;17.78;15.4;-59.7;2
-4.62;-9.02;-10.59;23.82;27.34;-45.24;2
-6;-7.67;-10.98;28.7;37.65;-28.63;2
-6.64;-6.6;-11.63;30.24;32.91;-13.59;2
-6.97;-6.13;-11.23;31.21;25.95;1.12;2
-6.66;-5.99;-9.85;38.83;21.98;17.7;2
-6.2;-6.15;-8.57;48.27;24.87;36.74;2
-5.21;-6.2;-8.28;55.4;26.9;54.57;2
-4.33;-6.35;-9.8;57.66;16.54;68.8;2
-3.66;-6;-11.36;55.85;8.39;79.44;2
-2.89;-6.27;-10.96;53.66;14.13;89.89;2
-1.68;-6.36;-10.42;53.19;29.82;98.36;2
-1.47;-6.14;-10.35;53.43;43.17;102.72;2
-1.68;-5.79;-9.98;53.27;53.27;104.71;2
-1.82;-5.83;-10.04;54.37;63.72;107.85;2
-2.02;-6.43;-11.23;51.98;67.21;112.95;2
-1.74;-6.77;-12.67;43.29;60.46;116.89;2
-1.45;-6.63;-13.26;32.83;57.97;116.87;2
-1.51;-7.28;-13.17;22.01;57.98;116.79;2
-1.73;-9.18;-13.23;7.52;47.32;115.49;2
-2.37;-12.37;-13.1;-6.91;28.76;107.99;2
-3.19;-14.78;-12.46;-12.94;6.06;103.31;2
-3.58;-13.62;-12.33;-17.84;-27.96;108.04;2
-3.19;-12.06;-13.1;-33.04;-64.45;115.76;2
-2.77;-11.44;-13.37;-55.11;-85.46;121.26;2
-1.98;-11.68;-12.32;-70.7;-86.72;121.26;2
-1.52;-12.54;-10.53;-70;-77.02;115.4;2
-1.05;-13.15;-9.51;-59.7;-67.3;108.48;2
-0.32;-13.19;-9.14;-51.28;-64.17;101.73;2
0.69;-12.61;-8.43;-46.37;-69.1;91.76;2
1.32;-12.07;-7.78;-40.63;-75.99;80.15;2
0.92;-11.27;-7.75;-35.48;-80.73;64.06;2
0.19;-10.24;-7.8;-32.43;-80.94;48.95;2
-0.71;-9.35;-7.98;-30.29;-77.63;38.36;2
-0.92;-9.06;-8.11;-26.64;-66.92;30.5;2
-0.46;-9.91;-8.49;-22.09;-43.97;21.43;2
0.67;-11.23;-8.47;-15.23;-14.53;10.68;2
1.38;-11.76;-7.48;-2.18;6.96;-1.61;2
1.29;-11.23;-7.07;15.25;11.54;-14.01;2
0.59;-10.37;-7.4;28.85;9.66;-26.74;2
-0.53;-9.8;-8.37;32.88;15.31;-37.96;2
-2.35;-9.85;-9.34;33.14;31.51;-43.86;2
-4.39;-9.85;-10.5;32.16;48.32;-47.69;2
-5.99;-9.51;-12.09;24.38;66.64;-50.16;2
-6.89;-9.71;-14.08;4.6;90.64;-51.75;2
-6.77;-9.44;-14.22;-19.55;114.95;-52.85;2
-6.26;-8.6;-12.03;-34.69;121.69;-51.35;2
-5.7;-7.51;-9.87;-37.34;98.86;-45.67;2
-5.74;-6.62;-8.75;-31.53;60.25;-39.3;2
-6.05;-5.78;-8.98;-22.16;18.87;-34.97;2
-6.54;-5.03;-10.72;-15.41;-9.75;-31.27;2
-6.78;-4.16;-12.38;-17.51;-24.55;-27.1;2
-5.37;-3.06;-12.9;-29.63;-40.3;-23.58;2
-2.59;-2.37;-12.46;-43.56;-60.91;-26.66;2
0.33;-1.86;-11.48;-52.78;-84.45;-40.12;2
2.58;-2.54;-10.53;-56.64;-120.52;-54.45;2
3.64;-6.42;-9.86;-54.94;-136.47;-65;2
1.64;-15.74;-7.82;-44.63;-86.71;-67.91;2
-0.85;-19.55;-6.07;-1.37;-18.84;-51.28;2
-6.01;-12.31;-15.33;4.21;19.29;-19.66;2
-10.35;-6.18;-20.55;-73.18;18.12;19.74;2
-5.41;-9.3;-7.35;-77.98;-28.35;50.8;2
4.96;-10.37;-2.49;-12.43;-38.65;43.21;2
12.59;-8.92;-6;16.82;3.67;5.36;2
13.23;-8.29;-9.68;24.67;54.16;-42.63;2
7.45;-8.75;-13.52;21.4;97.93;-86.2;2
-1.04;-9.89;-14.19;9.89;96.46;-105.65;2
-5.75;-11.98;-12.32;3.04;61.45;-98.04;2
-5.9;-13.14;-10.78;10.21;12.88;-80.21;2
-3.53;-12.46;-12.66;15.01;-32.29;-74.57;2
-1.11;-11.08;-14.85;2.94;-52.75;-77.47;2
1.55;-10.31;-13.71;-13.26;-44.2;-79.47;2
3.24;-11.05;-11.73;-17.55;-10.73;-87.59;2
3.24;-12.55;-11.49;-14.43;24.09;-100.46;2
2.44;-13.05;-12.48;-14.62;44.83;-110.95;2
0.9;-13.02;-12.79;-21.08;50.95;-117.15;2
-0.47;-13.56;-11.52;-24.4;51.29;-118.46;2
-1.99;-14.95;-10.24;-20.18;45.7;-118.75;2
-3.19;-15.21;-9.72;-11.65;31.35;-114.83;2
-3.44;-14.6;-9.79;-6.51;17.41;-110.44;2
-3.44;-14.89;-10.68;-1.12;8.01;-105.91;2
-3.37;-13.44;-11.21;1.73;3.54;-104.62;2
-3.63;-12.86;-11.23;0.79;7.58;-98.33;2
-3.75;-12.48;-10.35;4.41;18.31;-86.61;2
-3.99;-11.8;-9.82;11.8;23.61;-76.15;2
-4.43;-10.5;-10.08;15.66;18.06;-63.44;2
-5.29;-9.25;-10.09;17.54;16.58;-49.43;2
-5.89;-8.09;-9.96;24.63;20.42;-34.76;2
-6.14;-7.34;-10.93;33.39;17.74;-20.79;2
-6.2;-6.45;-11.58;36.48;11.35;-5.63;2
-6.44;-5.99;-10.81;39.22;13.51;11.82;2
-6.04;-6.02;-9.47;46.99;18.71;30.76;2
-5.15;-6.21;-8.66;55.09;27.7;50.08;2
-3.82;-6.25;-9.16;58.42;31.95;66.67;2
-3.13;-6.17;-11.12;53.89;17.88;78.79;2
-3.12;-6.19;-12.7;45.47;10.41;87.89;2
-2.94;-6.52;-12.03;40.1;20.86;97.53;2
-2.32;-6.37;-10.9;37.08;35.65;103.02;2
-2.43;-6;-9.85;36.95;41.06;105.67;2
-2.45;-5.69;-9.38;40.64;49;107.99;2
-2.83;-6.09;-10.22;43.14;53.12;116.07;2
-2.58;-6.76;-11.92;40.04;43.07;127.47;2
-1.95;-7.37;-12.91;30.13;40.16;133.76;2
-1.97;-9.22;-12.98;17.08;46.12;136.93;2
-1.9;-12.42;-12.46;8.03;42.62;136.07;2
-1.74;-14.65;-11.74;7.53;25.8;132.73;2
-1.94;-14.84;-11.7;8.5;2.8;133.27;2
-2;-14.25;-12.3;-0.57;-21.22;135.72;2
-2.23;-13.47;-13.19;-19.44;-40.96;138.74;2
-2.06;-12.83;-13.25;-40.37;-50.23;140.77;2
-1.64;-12.84;-12.27;-53.94;-47.21;141.07;2
-1.5;-13.14;-10.94;-56.09;-39.78;138.89;2
-0.98;-13.46;-9.84;-51.79;-33.78;135.29;2
-0.03;-13.44;-9.28;-47.53;-34.89;128.44;2
0.81;-13.24;-8.7;-42.64;-44.61;117.04;2
0.74;-12.3;-8.33;-34.1;-55.32;102.41;2
0.3;-10.83;-8.89;-26.76;-58.61;86.27;2
-0.07;-9.46;-8.62;-21.5;-66.07;70.39;2
-0.46;-8.96;-8.5;-15.47;-67.48;57.1;2
0.12;-8.73;-9.11;-11.08;-56.16;45.61;2
1.59;-9.18;-9.79;-9.78;-32.48;31.39;2
3.01;-9.76;-9.01;-9.24;-12.92;12.92;2
3.28;-9.6;-7.59;-3.08;-4.3;-5.44;2
2.66;-8.42;-6.78;7.94;5.96;-22.16;2
1.6;-7.06;-7.13;16.6;17.06;-36.88;2
0.04;-7.14;-7.43;23.53;28.86;-52.42;2
-2.49;-7.66;-8.29;28.38;37.38;-67.14;2
-5.23;-8.87;-10.12;33.43;52.88;-74.66;2
-7.35;-10.03;-12.56;36.83;80.57;-80.8;2
-8.39;-10.29;-14.83;27.41;104.98;-85.38;2
-8.61;-9.39;-15.11;2.91;114.79;-84.3;2
-8.78;-7.99;-12.79;-20.59;110.6;-73.11;2
-10.03;-7.77;-10.87;-32.64;86.2;-52.69;2
-10.81;-7.52;-10.54;-30.92;54.87;-28.93;2
-10.11;-5.76;-11.6;-25.44;31.4;-9.43;2
-8.04;-3.59;-13;-30.31;-0.05;-0.93;2
-5.04;-1.96;-12.54;-50.89;-50.42;-1.66;2
-0.84;-2.14;-10.51;-72.64;-99.13;-7.95;2
4.4;-4.78;-8.24;-77.84;-139.78;-29.66;2
7.07;-11.96;-8.44;-58.19;-155.84;-56.13;2
3.86;-19.55;-8.43;-37.48;-95.23;-58.18;2
-0.7;-16.62;-5.58;12.74;19.78;-41.06;2
-6.52;-7.71;-19.56;-21.23;3.48;-20.65;2
-7.39;-6.49;-16.07;-91.95;-34.78;23.57;2
3.12;-11.2;-0.29;-39.55;-41.2;29.08;2
11.51;-11;-3.17;23.83;-7.91;-14.66;2
11.52;-9.37;-9.78;31.88;53.24;-59.52;2
6.53;-8.96;-12.17;29.19;88.55;-82.31;2
-0.42;-9.72;-12.59;19.72;88.54;-86.14;2
-5.48;-10.67;-11.34;14.27;69.31;-77.91;2
-6.66;-10.93;-10.07;23.85;28.3;-68.71;2
-4.47;-10.16;-12.98;32.43;-7.4;-65.83;2
-2.13;-9.83;-15.3;19.73;-25.93;-68.75;2
-0.19;-10.11;-15.01;4.63;-33.01;-74.37;2
1.68;-10.99;-13.81;-4.18;-26.88;-83.67;2
2.06;-12.03;-12.94;-11.73;-14.94;-98.36;2
1.27;-12.49;-12.14;-18.37;-2.4;-109.1;2
0.63;-12.87;-11.87;-21.94;7.15;-115.75;2
-0.28;-13.24;-10.95;-22.2;10.7;-117.33;2
-0.8;-13.91;-9.72;-19.43;15.26;-115.98;2
-1.04;-14.8;-8.92;-13.22;17.26;-112.09;2
-1.16;-14.43;-9.03;-3.7;18.08;-110.77;2
-1.67;-14.12;-9.66;0.97;18.16;-110.81;2
-1.81;-12.96;-9.83;3.93;18.27;-108.08;2
-1.6;-12.71;-10.46;6.25;19.65;-104.04;2
-2.21;-12.39;-11.05;6.01;24.29;-99.66;2
-2.96;-11.53;-10.9;4.34;26.19;-94.46;2
-3.73;-10.81;-10.88;4.21;25.86;-88.12;2
-4.11;-9.55;-10.44;4.9;29.22;-80.27;2
-4.54;-8.42;-10.17;8.47;36.31;-69.87;2
-5.7;-7.56;-10.89;16.15;34.84;-56.59;2
-7.17;-6.72;-11.68;23.67;25.05;-39.01;2
-8.1;-6.11;-11.26;28.46;15.41;-18.24;2
-8.24;-6.21;-9.98;33.34;4.91;2.46;2
-7.63;-6.27;-8.93;40.56;-7.62;21.16;2
-6.34;-6.1;-8.67;47.63;-12.1;38.57;2
-4.55;-5.98;-8.9;54.53;-1.36;55.67;2
-2.68;-6.11;-9.11;59.33;23.23;71.24;2
-1.33;-5.47;-10.45;59.01;33.45;81.94;2
-1.59;-5.08;-12.5;54.95;32.79;86.57;2
-2.41;-5.1;-12.7;46.08;40.35;94.15;2
-2.58;-5.6;-10.96;41.69;58.91;101.99;2
-2.7;-6.19;-9.78;45.85;72.48;108.78;2
-3.46;-7.33;-10.33;48.93;78.58;119.16;2
-4.25;-10.21;-12.47;38.01;70.37;132.09;2
-4.51;-13.74;-14.3;19.54;45.97;142.57;2
-3.55;-14.58;-14.67;4.33;14.14;147.67;2
-1.86;-14.12;-13.99;-13.41;-13.78;150.1;2
0.33;-14.03;-12.77;-34.14;-33.78;145.99;2
0.8;-14.47;-11.54;-48.15;-47.15;138.67;2
-0.35;-14.68;-11.24;-52.37;-52.77;135.74;2
-1.4;-13.94;-11.05;-52.03;-52.65;136.6;2
-1.91;-13.06;-11.01;-52.28;-55.33;140.4;2
-1.68;-12.86;-10.81;-54.31;-54.53;143;2
-0.92;-13.16;-10.14;-56.53;-47.72;140.02;2
0.2;-13.06;-8.71;-56.07;-43.54;133.7;2
1.41;-12.78;-7.77;-51.03;-47.83;124.02;2
1.68;-11.6;-7.42;-42.02;-56.6;109.5;2
1.12;-9.65;-8.05;-34.6;-63.27;92.8;2
0.95;-8.44;-8.26;-28.79;-74.7;79.14;2
0.94;-8.16;-8.34;-21.35;-79.96;67.98;2
1.33;-8.6;-9.05;-16.9;-67.19;54.86;2
1.65;-9.77;-9.32;-13.53;-46.26;41.39;2
2.28;-10.49;-9.25;-8.39;-17.36;24.62;2
2.7;-10.23;-9.13;0.43;11.07;8.14;2
2.98;-9.42;-8.89;12.04;31.94;-7.2;2
2.5;-8.43;-8.44;22;41.29;-23.04;2
1.07;-7.21;-7.9;25.36;37.5;-37.17;2
-1.34;-6.6;-7.62;22.42;22.6;-45.26;2
-3.95;-7.24;-8.36;25.2;4.52;-52.92;2
-6.16;-8.26;-10.66;26.37;0.58;-62.91;2
-7.9;-9.22;-13.81;16.71;18.68;-73.46;2
-8.83;-9.44;-15.42;-3.88;52.64;-76.79;2
-8.91;-9.36;-14.09;-28.32;80.34;-72.55;2
-8.94;-9.75;-10.93;-36.28;87.13;-58.28;2
-9.46;-9.81;-8.92;-25.68;69.19;-38.33;2
-10.12;-8.91;-9.54;-10.81;41.8;-22.66;2
-9.98;-6.83;-11.14;-2.53;19.92;-10.7;2
-7.86;-4.39;-13.3;-12.28;-1.03;-3.77;2
-3.92;-1.77;-13.77;-40.27;-27.91;-0.9;2
1.48;-0.57;-11.79;-65.92;-67.85;-12.63;2
6.17;-0.71;-9.09;-79.21;-119.51;-39.64;2
9.15;-6.44;-7.55;-68.82;-143.21;-70.33;2
7.33;-18.44;-6.81;-46.67;-82.96;-88.8;2
2.95;-19.55;-2.55;9.29;22.75;-72.44;2
-3.52;-14.15;-13.6;46.5;69.56;-53.23;2
-13.99;-6.61;-29.68;-65.3;51.64;-1.44;2
-10.87;-9.42;-12.37;-116.65;-1.12;59.35;2
4.66;-12.52;3.13;-24.22;-38.07;51.2;2
12.92;-9.1;-2.93;33.47;16.79;2.83;2
13.45;-6.99;-9.62;38.94;85.93;-46.08;2
8.09;-7.56;-13.61;27.21;126.35;-82.13;2
0.09;-10.21;-14.33;12.95;112.3;-102.75;2
-6.34;-12.92;-12.38;11.63;70.45;-102.32;2
-7.64;-12.63;-9.91;25.37;15.67;-88.95;2
-6.09;-9.78;-12.15;31.98;-33.97;-76.24;2
-3.88;-8.78;-14.88;18.67;-53.63;-71.53;2
-1.4;-8.16;-15.22;-0.16;-45.89;-69.1;2
1.67;-8.46;-13.22;-11.79;-26.58;-73.05;2
3.7;-10.88;-12.42;-13.47;-12.01;-86.63;2
3.39;-12.36;-13.14;-16.08;4.19;-106.24;2
1.9;-12.09;-12.72;-23.69;14.47;-118.98;2
0.61;-12.04;-11.6;-28.95;22.04;-121.29;2
-0.7;-13.02;-10.08;-28.01;28.21;-118.11;2
-1.34;-13.67;-9.05;-19.05;26.39;-113.24;2
-1.28;-14.36;-9.26;-9.72;20.41;-111.44;2
-1.16;-14.08;-9.6;-1.97;19.49;-109.76;2
-1.22;-13.88;-9.42;3.76;21.76;-107.27;2
-1.37;-13.76;-9.74;11.5;27.99;-105.62;2
-2.09;-12.86;-10.32;15.3;29.47;-101.25;2
-2.96;-12.25;-10.94;16.39;28.41;-93.27;2
-3.18;-11.47;-11.38;17.72;29.58;-84.04;2
-4.05;-11.09;-11.55;15.03;32.72;-76.15;2
-4.67;-10.24;-11.1;12.67;35.96;-66.8;2
-5;-8.96;-10.67;16.34;40.38;-54.96;2
-6.69;-7.77;-10.69;28.84;43.33;-43.29;2
-7.93;-6.57;-11.45;39.27;34.43;-24.72;2
-8.58;-5.97;-11.07;42.39;18.53;-2.18;2
-8.52;-6.28;-9.93;46.78;3.81;19.75;2
-6.88;-6.39;-8.9;55.27;-2.96;36.25;2
-5.29;-6.39;-8.73;63.61;-0.95;50.01;2
-3.63;-6.61;-9.47;64.84;13.18;63.36;2
-2.04;-6.62;-10.28;59.82;30.32;78.42;2
-1.39;-5.27;-12.23;50.44;26.86;85.85;2
-2.47;-5.39;-13.53;41.43;24.42;92.27;2
-3.17;-5.9;-12.34;36.13;36.87;103.55;2
-3.65;-6.57;-11.3;33.34;53.06;116.41;2
-4.54;-7.76;-10.74;32.6;56.18;127.44;2
-5.43;-10.47;-11.65;27.86;47.19;140.57;2
-5.12;-13.22;-13.35;16.91;21.06;151.02;2
-3.34;-13.61;-13.96;5.28;-6.06;155.67;2
-1.64;-12.81;-13.45;-9.26;-20.66;158.24;2
-0.16;-12.66;-12.1;-24.53;-25.71;160.05;2
0.7;-13.46;-11.02;-32.55;-30.05;157.32;2
0.39;-14.61;-10.79;-35.75;-29.54;155.24;2
-0.33;-14.79;-10.79;-38.44;-24.64;153.92;2
-1.26;-14.37;-10.72;-40.66;-19.09;154.89;2
-1.94;-13.58;-10.74;-45.73;-20.02;157.07;2
-2.3;-13.18;-10.5;-51.66;-32.65;157.9;2
-2.19;-12.95;-10.13;-54.73;-49.43;157.04;2
-1.82;-13.02;-9.4;-53.05;-64.43;152.63;2
-1.33;-12.91;-8.9;-46.2;-72.98;142.3;2
-1.14;-12.02;-8.42;-34.25;-79.46;129.94;2
-0.57;-10.82;-9.12;-23.28;-85.01;119.89;2
0.77;-10.17;-9.43;-16.27;-86.66;109.37;2
2.04;-10.34;-8.79;-8.61;-78.68;95.28;2
2.79;-10.66;-8.18;1.66;-62.48;78.36;2
3.02;-10.47;-8.44;11.47;-44.83;60.25;2
3.63;-9.69;-9.19;15.26;-24.84;38.6;2
3.85;-8.71;-9.92;12.85;-4.42;15.44;2
3.69;-7.98;-9.25;8.44;6.25;-6.4;2
2.47;-7.29;-8.29;7.6;2.57;-23.26;2
0.9;-6.74;-7.94;9.94;-6.56;-36.67;2
-0.3;-6.92;-8.69;10.95;-8.72;-50.51;2
-0.92;-7.46;-10.47;8.26;1.15;-69.05;2
-0.91;-8.25;-11.85;-2.7;24.99;-86.89;2
-1.67;-9.66;-12.6;-16.71;53.29;-105.01;2
-2.59;-10.72;-12.2;-19.74;80.85;-117.85;2
-3.71;-10.51;-11.62;-9.84;107.53;-121.4;2
-5.68;-9.72;-12.57;-0.89;123.94;-117.05;2
-8.9;-9.03;-13.67;-6.91;109.67;-105.64;2
-13.14;-8.75;-13.26;-22.6;74.08;-87.36;2
-16.61;-8.15;-12.58;-32.28;41.42;-56.88;2
-14.63;-5.62;-12.26;-46.51;-20.07;-26.39;2
-8.53;-2.3;-12.35;-69.38;-99.22;-11.33;2
-1.44;0.27;-12.57;-90.35;-157.24;-13.3;2
7.21;-0.27;-8.12;-95.54;-168.3;-36.8;2
14.32;-4.21;-1.09;-64.44;-109.96;-81.77;2
15.18;-11.12;-2.19;-19.72;-19.44;-132.38;2
6.67;-19.55;-8.92;16.96;32.14;-153.75;2
-5.71;-19.55;-17.65;28.15;55.64;-121.25;2
-17.93;-10.78;-26.89;-44.95;69.37;-50.38;2
-18.91;-9.52;-15.67;-119.6;8.38;15.26;2
-6.94;-14.06;1.96;-66.43;-118.04;42.57;2
6.15;-10.64;-2.12;3.97;-94.77;22.48;2
13.06;-8.01;-10.01;30.45;-0.5;-18.28;2
13.08;-7.23;-14.18;25.37;70.79;-54.75;2
9.66;-8.09;-15.56;-2.12;97.21;-81.92;2
4.57;-11.18;-14.25;-14.14;97.3;-105.16;2
-0.9;-13.83;-11.95;-4.18;81.29;-116.82;2
-4.54;-12.43;-10.03;10.22;35.12;-115.62;2
-6.49;-9.51;-12.34;12.11;-23.78;-103.66;2
-5.36;-8.1;-14.45;-2.54;-57.68;-86.7;2
-1.16;-8.29;-13.56;-17.31;-59.93;-78.06;2
1.07;-9.52;-12.15;-23.86;-46.4;-78.04;2
3.44;-10.73;-11.21;-23.18;-28.42;-86.98;2
4.01;-12.03;-11.47;-22.66;2.84;-96.99;2
3.36;-12.53;-11.55;-20.87;32.51;-103.38;2
2.44;-12.97;-11.69;-21.93;42.18;-108.66;2
1.35;-13.47;-10.6;-24.82;48.09;-108.08;2
0.08;-14.14;-10.19;-14.77;56.19;-105.57;2
-1.21;-14.13;-10.77;-3.86;53.85;-104.08;2
-2.17;-13.87;-11;0.02;48.61;-99.43;2
-2.36;-12.92;-10.75;2.09;42.28;-93.39;2
-2.25;-12.44;-10.56;3.14;39.18;-89.82;2
-2.75;-11.94;-10.34;4.03;34.65;-85.48;2
-3.28;-11.32;-10.49;8.3;33.19;-75.89;2
-3.94;-10.29;-11.15;12.96;32.29;-64.88;2
-4.62;-9.56;-11.07;19.86;34.38;-50.45;2
-5.57;-8.5;-11;28.79;32.87;-32.74;2
-6.31;-7.52;-11.11;36.48;23.99;-15;2
-6.69;-6.9;-11.36;42.58;7.83;1.71;2
-6.95;-6.85;-10.84;46.61;-8.63;18.42;2
-6.6;-6.62;-10.21;49.51;-15.71;35.96;2
-5.91;-6.43;-9.39;54.06;-8.51;53;2
-4.57;-6.62;-8.4;62.22;10.44;68.6;2
-3.1;-6.86;-8.22;71.14;34.96;80.68;2
-1.86;-7.13;-8.96;75.68;62.31;91.76;2
-1.22;-6.98;-11.48;69.98;60.78;98.96;2
-2.44;-7.95;-13.06;57.21;48.45;107.89;2
-3.36;-8.91;-12.75;49.3;46.9;122.21;2
-3.65;-9.76;-11.74;45.05;55.27;140.49;2
-3.15;-10.24;-11.45;40.79;52.35;156.28;2
-2.66;-11.29;-11.77;32.72;47.17;165.34;2
-2.17;-13.01;-13.04;18.01;34.93;172.7;2
-1.2;-13.97;-13.69;1.86;17.47;174.08;2
-0.39;-13.95;-13.18;-14.57;8.62;171.98;2
0.38;-13.78;-11.37;-25.53;8.46;167.76;2
0.6;-13.69;-9.65;-25.01;10.66;163.98;2
0.03;-13.81;-9.61;-23.54;10.87;161.39;2
-0.75;-13.76;-9.94;-26.21;11.57;160.59;2
-1.59;-13.42;-10.13;-30.94;8.38;160.05;2
-1.48;-12.84;-9.99;-34.35;-3.26;155.17;2
-1.42;-12.32;-9.54;-33.51;-18.97;147.62;2
-1.39;-11.7;-8.91;-28.39;-33.71;136.96;2
-1.06;-10.73;-9.09;-23.14;-42.71;126.28;2
-0.22;-10.07;-9.26;-20.74;-47.56;113.89;2
0.64;-9.9;-8.91;-17.54;-50.08;99.98;2
1.45;-9.89;-8.98;-13.23;-48.11;85.88;2
1.8;-9.67;-9.23;-9.86;-45.97;69.15;2
2.31;-9.07;-9.37;-6.98;-41.89;49.96;2
2.65;-8.27;-9.66;-4.24;-34.99;31.18;2
2.84;-7.01;-10.04;-1.5;-25.63;11.96;2
2.82;-5.87;-10.62;-2.56;-12.07;-8.59;2
2.49;-5.28;-10.57;-5.31;6.12;-29.75;2
1.74;-5.45;-9.39;-5.05;14.42;-49.97;2
0.47;-5.92;-8.66;-4.41;7.16;-66.06;2
-0.3;-7.06;-7.98;-4.31;-3.47;-81.88;2
-1.43;-8.76;-8.26;-0.1;-0.35;-97.84;2
-3.83;-10.68;-8.8;3.47;18.99;-115.01;2
-8.34;-12.49;-10.27;9.62;56.16;-132.56;2
-12.67;-11.85;-12.22;20.83;86.42;-135.23;2
-16.12;-9.89;-15.93;12.79;74.03;-107.43;2
-17.57;-8.72;-16.93;-21.21;37.57;-59.01;2
-16.83;-7.37;-14.1;-50.35;18.7;-9.29;2
-11.98;-4.84;-11.47;-58.69;14.4;20.75;2
-4.79;-2.62;-11.17;-72.28;-13.04;20.86;2
4.23;-2.31;-7.64;-91.17;-95;-6.68;2
10.45;-7.54;-5.85;-84.69;-153.91;-46.89;2
11.16;-19.55;-4.73;-46.95;-131.48;-80.84;2
6.31;-19.55;-0.55;20.37;-36.39;-84.35;2
-2.73;-13.27;-8.1;67.09;25.73;-68.14;2
-10.88;-5.64;-29.68;-43.73;-19.34;-18.94;2
-5.63;-7.27;-14.04;-113.31;-2.36;37.47;2
11.07;-13.76;4.42;-3.37;-4.49;2.13;2
14.84;-10.25;-6.73;49.38;31.3;-71.15;2
9.02;-7.62;-13.34;39.4;95.25;-102.95;2
2.51;-8.21;-14.68;19.27;102.36;-104.75;2
-2.43;-10.72;-14.39;0.79;68.99;-97.52;2
-5.52;-11;-12.52;-6.84;27.06;-84.95;2
-3.09;-10.03;-11.46;-0.34;-14.71;-84.53;2
-1.51;-8.69;-13.22;-0.01;-51.08;-89.97;2
0.14;-8.11;-13.8;-13.83;-56.95;-90.69;2
1.46;-8.69;-11.99;-24.61;-42.84;-89.62;2
2.43;-10.31;-10.76;-22.59;-21.93;-90.93;2
3;-11.41;-10.43;-16.88;-10.79;-93.9;2
2.68;-11.5;-10.76;-13.99;-1.75;-98.25;2
2.12;-11.36;-10.37;-15.14;6.12;-104.96;2
1.71;-12.19;-9.76;-15.36;20.45;-106.85;2
1.87;-11.97;-9.58;-9.34;41.5;-102.66;2
2.55;-11.63;-10.52;-3.74;50.4;-105.06;2
1.23;-11.91;-11.69;-4.11;62.38;-107.74;2
1.21;-12.3;-11.39;-5.99;74.94;-106.3;2
1.44;-12.79;-11.16;3.58;76.68;-109.49;2
0.2;-12.72;-11.7;10.1;65.8;-114.04;2
-1.73;-12.26;-11.82;12.73;57.03;-114.86;2
-3.8;-11.99;-11.56;11.52;56.04;-112.9;2
-4.35;-11.4;-10.52;12.33;58.19;-110.44;2
-4.73;-10.81;-10.1;17.69;64.06;-103.05;2
-5.73;-10.02;-10.92;27.72;78.57;-89.5;2
-8.41;-8.49;-11.81;41.18;79.9;-70.39;2
-10.83;-6.58;-12.46;49.53;64.81;-41.12;2
-11.6;-5.89;-12.32;54.11;59.93;-8.3;2
-10.93;-5.67;-12.49;60.57;55.88;20.57;2
-9.46;-5.15;-13.21;59.11;42.8;47.3;2
-8.12;-4.69;-12.91;49.51;31.82;67.38;2
-7.94;-5.53;-12.39;38.59;22.07;87.79;2
-8.5;-7.87;-11.8;27.64;13.94;114.92;2
-8.16;-10.21;-9.76;25.19;21.74;140.79;2
-5.19;-12.39;-9.15;34.47;27.76;161.57;2
-1.65;-12.25;-12.18;31.92;5.87;174.58;2
-1.5;-12.47;-15.91;4.42;-37.97;184.45;2
-1.72;-13.11;-15.75;-31.57;-78.07;188.12;2
-1.16;-14.86;-13.88;-63.84;-96.17;187.07;2
-0.85;-17.45;-11.76;-77.52;-98.2;185.75;2
0.31;-18.68;-10.49;-74.77;-91.38;180.34;2
1.44;-18.08;-8.86;-61.92;-77.08;176.89;2
2.16;-16.99;-7.62;-42.74;-43.23;177.79;2
2.78;-15.69;-8.19;-28.7;-12.84;180.21;2
3.27;-14.21;-8.57;-24.76;0.87;182.27;2
2.6;-13.68;-8.45;-24.6;1.83;183.97;2
1.58;-12.66;-8.08;-23.55;-17.83;183.67;2
2.54;-11.57;-8.33;-21.96;-25.94;180.87;2
1.26;-10.97;-8.51;-20.87;-32.01;172.97;2
0.68;-10.36;-8.89;-20.72;-33.07;162.38;2
0.57;-9.74;-9.15;-19.48;-29.6;151.3;2
1.01;-9.51;-9.57;-15.76;-22.68;141.02;2
2.16;-9.33;-10.13;-10.63;-12.78;127.5;2
2.69;-9.02;-10.18;-4.12;-4.77;109.79;2
3.55;-8.55;-10.11;4.23;4.06;88.22;2
4.6;-7.78;-10.17;12.2;16.13;62.25;2
4.96;-6.57;-10.65;13.44;25.22;32.38;2
4.57;-5.28;-10.34;8.16;19.35;1.71;2
3.16;-4.27;-9.58;1.37;1.7;-23.99;2
1.89;-3.51;-9.39;-1.28;-12.86;-43.74;2
1.19;-4.18;-9.23;-3.08;-11.13;-64.32;2
-0.49;-5.03;-8.32;-3.28;-1.95;-87.04;2
-2.02;-6.39;-8.25;-1.63;8.35;-109.72;2
-3.43;-9.51;-8.64;7.29;22.56;-132.39;2
-5.16;-14.51;-9.1;32.16;32.79;-150.68;2
-7.33;-15.51;-10.59;66.17;40.32;-155.49;2
-10.37;-11.68;-17.37;70.41;61.98;-147.94;2
-15.54;-9.28;-24.68;1.48;75.68;-113.39;2
-19.7;-9.22;-19.74;-85.65;62.5;-44.95;2
-19.7;-7.17;-8.61;-112.09;45.46;14.25;2
-14.29;-6.57;-4.78;-79.49;-15.18;29.14;2
-4.93;-5.33;-7.71;-56.41;-83.01;18.15;2
5.61;-7.66;-6.9;-53.15;-114.78;-10.14;2
14.51;-16.94;-5.71;-38.13;-108.67;-50.57;2
15.45;-18.07;-3.12;2.05;-38.9;-87.05;2
4.16;-12.58;-5.51;31.47;69.38;-90.89;2
-7.24;-9.47;-18.53;12.52;40.19;-66.24;2
-13.32;-7.94;-23.09;-61.37;-11.79;-3.48;2
-0.95;-12.81;-5.37;-44.61;-9.59;18.6;2
10.08;-12.3;-6.65;22.12;-4.16;-22.6;2
10.01;-8.15;-14.42;15.67;33.62;-63.68;2
3.2;-7.62;-15.2;0.29;59.05;-77.27;2
-3.29;-8.7;-14.49;-11.55;30.38;-75.03;2
-5.6;-10.2;-11.59;-20.5;-5.08;-62.84;2
-2.19;-10.69;-9.1;-5.61;-38.75;-58.25;2
1.52;-9.62;-11.29;6.47;-48.87;-69.82;2
2.66;-9.7;-13.15;2.74;-35.07;-86.14;2
1.58;-9.93;-12.79;-2.47;-21.91;-98.14;2
1.31;-9.99;-12.38;-4.44;-10.16;-101.37;2
1.05;-10.32;-12.09;-6.44;-5.76;-104;2
0.18;-10.89;-11.37;-6.93;-6.55;-105.27;2
-0.27;-10.99;-10.81;-4.37;-7.38;-106.46;2
-0.25;-10.56;-10.5;0.34;-7.09;-107.08;2
0.45;-10.4;-10.99;4.21;-0.08;-105.88;2
1.58;-10.49;-11.06;3.31;19.3;-105.61;2
2.05;-11.25;-10.86;3.1;43.22;-108.7;2
1.97;-12;-10.78;5.31;64.02;-111.92;2
1.02;-11.99;-11.41;7.58;73.74;-115.45;2
0.02;-11.98;-11.52;8.71;79.96;-118.87;2
-1.7;-11.74;-12.27;12.19;73.38;-121.59;2
-3.14;-10.46;-12.26;12.71;65.77;-123.67;2
-4.55;-9.45;-11.19;12.5;69.06;-124.18;2
-6.41;-9.28;-10.82;15.53;64.62;-113.33;2
-7.9;-8.8;-11.09;20.21;53.77;-89.88;2
-8.72;-9.55;-11.71;26.85;55.22;-64.02;2
-8.65;-9.91;-12.09;38.85;64.99;-42.37;2
-9.19;-8.06;-12.15;49.2;51.74;-16.43;2
-10.21;-6.62;-12.04;55.1;49.01;12.99;2
-9.8;-6.12;-12.42;62.72;50.89;38.93;2
-8.5;-5.61;-13.28;65.79;42.65;57.3;2
-7.48;-6.63;-13.35;57.65;34.09;78.74;2
-7.66;-9.01;-11.69;47.14;31.53;103.9;2
-8.14;-10.33;-8.91;43.22;31.47;127.41;2
-6.98;-11.03;-10.14;42.05;25.54;149.09;2
-3.94;-9.66;-11.09;28.81;8.83;169.2;2
-3.53;-9.97;-13.98;3.7;-27.79;190.82;2
-3.02;-11.44;-15.37;-23.02;-72.81;200.8;2
-2.11;-13.69;-14.44;-45.3;-102.61;193.83;2
-1.95;-14.76;-13.17;-61.63;-112.3;188.63;2
-1.77;-15.61;-10.86;-69.97;-88.84;185.09;2
-0.46;-16.45;-6.14;-54.4;-44.44;184.49;2
1.03;-17.47;-5.66;-17.99;-12.81;192.7;2
2.47;-16.13;-7.86;-6.11;-19.13;201.22;2
2.57;-14.12;-7.9;-9.66;-21.96;208.89;2
1.96;-12.93;-7.91;-12.3;-26.84;209.11;2
2.85;-12.65;-8.49;-11.37;-14.45;204.01;2
1.08;-11.63;-9.63;-12.56;-12.64;189.44;2
0.25;-11.28;-10.1;-18.19;-10.2;174.25;2
-0.41;-11.3;-9.73;-18.39;-4.01;158.08;2
-0.27;-11.38;-9.16;-8.99;1.86;140.19;2
-0.75;-10.91;-9.58;5.45;-6.73;123.63;2
-1.2;-9.87;-11.08;11.66;-11.12;109.24;2
-1.7;-9.15;-11.6;6.68;-9.4;94.28;2
-1.11;-8.64;-11.75;-4.79;-3.98;78.93;2
-0.09;-8.24;-10.89;-14.95;-3.93;59.61;2
0.84;-8.01;-8.81;-18.46;-20.97;35.68;2
1.47;-7.7;-6.87;-12.76;-46.92;8.55;2
0.96;-6.91;-7.09;-6.24;-59.46;-19.76;2
0.61;-6.61;-8.32;-8.15;-56.68;-50.52;2
0.36;-7.33;-8.37;-10.68;-54.43;-82.78;2
-0.34;-8.48;-8.02;-5.36;-49.39;-108.46;2
-0.53;-9.62;-8.51;2.61;-29.59;-123.49;2
-0.33;-10.35;-8.96;10.1;-2.69;-131.63;2
-0.64;-11.24;-9.4;17.44;32.37;-135.55;2
-1.71;-11.52;-10.55;25.98;72.09;-133.47;2
-2.67;-11.06;-11.58;31.33;103.09;-126;2
-3.81;-9.67;-12.62;28.27;124.55;-114.69;2
-5.07;-7.92;-14.02;11.73;144.25;-105.44;2
-7.18;-6.11;-15.13;-9.09;157.98;-91.35;2
-9.01;-3.56;-15.85;-31.96;142.58;-72.79;2
-10.03;-1.35;-14.44;-57.12;83.06;-57.63;2
-8.49;0.12;-11.82;-77.82;-8.14;-49.54;2
-4.59;0.67;-9.73;-85.49;-88.84;-55.85;2
-0.65;-0.25;-7.07;-79.73;-158.34;-76.67;2
0.24;-7.96;-4.38;-50.76;-183.01;-98.77;2
-4.08;-19.03;-6.85;-11.1;-129.18;-94.63;2
-2.9;-19.55;-15.26;13.4;-127.55;-59.24;2
2.63;-8.65;-24.27;-36.47;-70.95;-36.43;2
5.37;-8;-17.36;-81.64;10.22;-49.02;2
4.03;-12.68;-11.98;-70.31;-47.62;-77.04;2
0.09;-13.62;-8.09;-62.5;-83.02;-86.25;2
-0.83;-13.07;-3.28;-44.86;-50.56;-82.06;2
0.7;-12.44;-4.12;-6.14;-18.85;-73.01;2
3.88;-11.19;-9.98;13.18;-19.75;-79.32;2
4.51;-11.78;-12.65;2.31;-10.91;-91.6;2
4.04;-12.79;-9.96;-2.87;24.38;-91.25;2
3.16;-12.91;-8.86;10.64;33;-88.22;2
1.1;-11.98;-10.94;20.91;14.21;-92.56;2
-1.08;-11.27;-12.64;13.78;10.61;-95.22;2
-1.42;-11.6;-12.37;5.31;10.31;-95.37;2
-0.66;-11.96;-12.38;-0.42;12.38;-95.33;2
-0.86;-11.83;-13.02;-6.95;10.31;-96.5;2
-1.42;-12.25;-12.73;-12.33;17.48;-98.03;2
-1.16;-12.19;-12.1;-11.86;30.5;-98.93;2
-1.02;-12.06;-10.56;-11.29;47.25;-97.28;2
-1.67;-12.89;-9.52;-2.37;51.96;-95.46;2
-2.75;-12.67;-10.03;9.3;57.61;-92.89;2
-3.55;-11.87;-10.68;17.2;60.44;-88.42;2
-4.23;-11.29;-11.35;22.03;62.19;-79.57;2
-5.19;-10.02;-11.78;26.44;57.8;-70.02;2
-6.6;-8.99;-11.85;29.3;55.29;-59.08;2
-8.03;-7.64;-11.22;30.43;49.64;-46.03;2
-9.16;-6.21;-10.58;30.5;29.74;-28.86;2
-10.49;-5.36;-9.57;32.13;-0.78;-6.01;2
-10.8;-4.97;-9.61;35.3;-23.48;19.29;2
-9.75;-5.16;-9.82;37.18;-34.88;40.77;2
-7.87;-5.57;-9.96;36.08;-39.91;56.16;2
-5.73;-5.95;-10.77;34.21;-34.56;70.43;2
-4.25;-5.09;-13;29.55;-41.42;83.66;2
-5.77;-6.39;-15.53;19.29;-63.33;101.2;2
-7.14;-8.93;-14.53;4.14;-76.53;132.98;2
-6.31;-11.89;-12.47;0.02;-80.07;160.64;2
-4.16;-13.16;-12.43;-0.29;-92.5;176.18;2
-1.69;-13.58;-13.2;-4.99;-98.91;183.5;2
0.55;-14.4;-13.42;-12.43;-84.46;185.81;2
2.32;-14.95;-11.85;-16.51;-44.52;185.54;2
3.4;-15.35;-10.73;-14.02;-8.19;181.78;2
3.35;-15.09;-10.36;-11.24;14.93;178.26;2
2.79;-14.75;-10.01;-8.72;21.94;176.25;2
2.19;-14.36;-9.96;-7.39;22.81;174.44;2
0.91;-13.85;-9.77;-7.24;23.84;169.92;2
0.04;-12.79;-9.81;-8.4;27.35;164.03;2
-0.68;-12.25;-9.54;-11.65;28.57;156.21;2
-0.92;-11.87;-9.14;-14.23;21.44;149.26;2
-1.19;-12.43;-8.3;-11.96;7.45;141.75;2
-0.56;-13.04;-7.61;-1.93;-9.76;133.07;2
-0.06;-12.82;-8.57;12.01;-15.23;122.11;2
1.13;-12.52;-9.37;21.37;-9.36;107.4;2
3.06;-12.09;-8.11;29;-17.88;87.96;2
3.47;-11.07;-7.26;36.61;-33.07;65.86;2
2.77;-9.49;-7.54;45.16;-36.17;41.83;2
2;-8.03;-8.39;53.31;-32.65;17.58;2
0.82;-7.59;-9.96;54.37;-19.98;-6.76;2
0.03;-7.24;-10.95;51.6;-3.35;-23.71;2
0.4;-7.58;-11.58;41.88;11.54;-36.9;2
0.9;-8.59;-11.76;28.56;32.23;-51.34;2
0.67;-9.85;-11.99;18.4;59.84;-66.24;2
-0.23;-10.88;-12.34;11.5;83.96;-80.13;2
-1.69;-11.09;-12.74;10.14;109.05;-88.29;2
-3.06;-10.17;-13.27;13.1;137.9;-88.18;2
-4.33;-9.23;-14.01;10.47;156.52;-86.24;2
-5.31;-7.33;-14.77;-6.12;149.97;-83.79;2
-5.98;-5.41;-14.85;-26.63;111.93;-74.52;2
-6.29;-3.85;-14.78;-52.11;39.39;-65.02;2
-6.65;-2.14;-13.44;-76.21;-37.94;-62.98;2
-5.55;-1.18;-9.83;-76.04;-83.51;-67.82;2
-1.97;-1.29;-5.68;-47.76;-103.19;-86.41;2
1.15;-1.6;-5.34;-17.69;-109.81;-116.38;2
1.95;-2.16;-7.16;-6.52;-112.76;-140.18;2
0.77;-4.24;-8.57;-8.96;-96.83;-150.37;2
-5.63;-13.01;-12.6;-13.92;-66.49;-139.45;2
-14.76;-19.55;-16.4;-23.58;-65.51;-81.08;2
-12.09;-15.16;-15.12;-18.05;-45.01;-0.63;2
-2.72;-6.3;-12.04;-55.36;-46.69;10.42;2
1.48;-8.87;-6.95;-42.72;-95.3;-1.04;2
5.76;-8.46;-6.02;-4.66;-36.22;-14.72;2
9.69;-7.52;-10.1;9.19;21.72;-33.22;2
10.61;-9.19;-14.41;1.58;40.61;-60.27;2
8.13;-11.49;-16.32;-10.72;60;-99.5;2
3.03;-12.75;-15.16;-17.4;57.22;-129.46;2
-1.17;-12.28;-12.83;-24.08;32.06;-135.58;2
-4.38;-12.08;-11.19;-29.89;-4.57;-121.14;2
-4.92;-11.82;-10.17;-29.18;-49.76;-105.5;2
-2.23;-11.41;-9.84;-23.98;-71.15;-99;2
2.47;-12.21;-10.14;-20.89;-53.07;-101.49;2
4.96;-13.94;-10.43;-20.44;-19.06;-109.95;2
4.62;-14.59;-10.82;-20.14;15.54;-117.08;2
1.95;-14.62;-11.11;-17.7;41.12;-119.1;2
-0.77;-13.93;-11.23;-14.86;60.29;-114.7;2
-2.51;-13.09;-10.88;-10.28;75.64;-104.85;2
-3.45;-12.8;-10.81;-1.69;78.85;-93.21;2
-3.48;-12.06;-11.38;6.24;79.58;-83.37;2
-3.5;-11.33;-11;13.56;87.27;-72.37;2
-4.15;-11.02;-10.85;21.91;89.03;-62.69;2
-5.18;-10.61;-11.33;30.74;78.72;-53.29;2
-6.01;-9.2;-11.47;37.89;59.78;-43.82;2
-6.64;-8.49;-10.96;44.79;40.24;-30.94;2
-6.85;-6.75;-11.15;45.23;24.16;-15.1;2
-7.64;-5.7;-11.31;43.08;5.59;1.48;2
-8.56;-5.44;-10.58;41.53;-8.39;18.1;2
-8.59;-5.65;-9.34;43.54;-11.59;37.04;2
-6.84;-5.9;-8.28;51.43;-6.11;53.9;2
-4.58;-6.47;-9.16;58.72;3.15;70.91;2
-3.11;-7.83;-10.53;55.24;15.66;91.68;2
-2.97;-7.76;-12.72;44.92;8.5;106.88;2
-3.63;-7.91;-14.27;27.66;-12.54;121.09;2
-3.66;-8.77;-12.9;11.14;-10.4;144.47;2
-2.84;-10.93;-11.66;7.15;-4.13;161.57;2
-1.74;-12.4;-11.42;9.47;-15.41;166.88;2
-0.91;-13.76;-11.92;9.31;-24.83;167.44;2
-0.4;-15.22;-11.73;2.87;-12.6;167.73;2
1.03;-15.34;-11.51;-4.15;2.1;167.5;2
1.95;-14.66;-10.94;-12.17;14.09;167.51;2
2.19;-14.34;-10.46;-15.96;14.73;167.2;2
1.97;-14.53;-10.52;-15.3;4.45;166.84;2
1.33;-14.4;-10.61;-15.79;-1.01;163.8;2
0.35;-13.64;-10.87;-19.94;1.8;160.34;2
-0.25;-12.94;-10.65;-25.06;3.56;153.81;2
-0.97;-12.23;-9.84;-27.23;-0.87;148.83;2
-0.79;-11.25;-9.42;-25.16;-4.44;143.14;2
0.52;-10.46;-8.93;-21.03;-5.08;134.34;2
0.79;-10;-7.96;-12.86;-13.72;120.48;2
1.13;-9.35;-7.52;-1.27;-23.84;104.12;2
1.17;-8.55;-7.91;7.99;-34.69;86.33;2
1.49;-7.5;-8.69;11.64;-45.57;64.54;2
2.2;-6.46;-9.47;11.59;-48.88;39.76;2
2.52;-5.45;-10.13;9.55;-48.4;14.19;2
2.49;-4.92;-10.54;11.89;-42.12;-7.93;2
2.61;-4.53;-11.18;14.73;-21.61;-25.63;2
2.54;-4.1;-11.97;9.16;2.03;-41.21;2
2.43;-4.21;-11.88;-3.73;18.58;-57.82;2
2.45;-5.32;-10.98;-18.09;29.16;-79.3;2
1.38;-7.78;-8.14;-21.14;29.72;-107.7;2
-1.66;-10.58;-4.64;-6.95;14.7;-133.63;2
-7.62;-13.38;-5.78;23.5;16.22;-152.73;2
-16.04;-14.54;-13.31;51.27;19.58;-140.82;2
-19.7;-12.66;-21.02;16.51;-4.97;-85.21;2
-19.7;-9.49;-16.74;-53.38;15.67;-12.69;2
-18.78;-7.52;-8.25;-68.54;42.39;35.3;2
-7.78;-4.71;-6.58;-49.56;10.9;40.34;2
0.66;-1.17;-7.03;-49.02;-51.65;23.13;2
9.01;-0.96;-4.11;-47.24;-107.03;-10.27;2
14.49;-7.35;-7;-31.66;-70.96;-51.13;2
15.34;-19.55;-9.7;-13.5;3.51;-81.91;2
8.39;-19.55;-9.71;26.72;56.48;-94.12;2
-6.31;-14.75;-23.86;-12.83;71.61;-66.86;2
-16.72;-9.59;-24.13;-124.18;40.35;-0.21;2
-6.39;-11.82;0.2;-89.38;-50.75;28.9;2
7.66;-9.93;0.61;7.87;-60.06;-3.19;2
13.99;-5.81;-10.56;16.53;-8.59;-45.22;2
11.57;-6.33;-14.19;-1.53;43.93;-81.91;2
5.91;-9.53;-13.55;-8.95;73.41;-102.53;2
0.39;-12.52;-11.55;-5.34;59.32;-109.13;2
-3.23;-12.79;-9.92;5.56;22.37;-104.55;2
-3.17;-10.27;-10.64;14.9;-7.75;-100.05;2
-2.54;-7.46;-12.84;6.63;-20.51;-92.92;2
-1.97;-7.5;-13.18;-8.23;-14.73;-88.69;2
-0.35;-8.41;-12.03;-11.38;1.51;-85.93;2
1.05;-9.39;-11.76;-6.49;8.93;-89.93;2
1.47;-9.76;-11.92;-5.58;15.81;-94.59;2
1.27;-9.86;-11.91;-7.94;25.61;-98.37;2
0.71;-10.19;-11.52;-7.66;35.88;-101.42;2
-0.03;-10.44;-11.57;-6.11;38.06;-102.95;2
0.1;-10.32;-11.95;-6.28;37.02;-102.63;2
1.07;-10.67;-11.58;-10.23;40.43;-103.75;2
2.31;-11.72;-10.76;-10.34;48.45;-107.06;2
3.25;-12.52;-10.45;-5.73;57.88;-113.89;2
3.41;-13.36;-11.25;2.12;60.83;-122.89;2
2.31;-13.64;-12.22;2.53;59.61;-130.03;2
1.5;-13.39;-11.97;0.86;59.67;-135.67;2
0.26;-12.86;-10.65;0.91;65.12;-140.71;2
-2.31;-11.17;-9.62;3.21;81.96;-140.37;2
-5.87;-9.57;-9.39;9.62;95.51;-124.39;2
-8.54;-9.03;-11.39;25.77;105.94;-93.33;2
-9.89;-8.57;-14.28;43.64;116.92;-56.53;2
-11.08;-7.94;-15.29;42.77;105.83;-21.76;2
-10.33;-8.71;-13.64;41.68;102;5.68;2
-8.32;-8.89;-12.43;44.98;104.71;21.51;2
-7.26;-8.33;-11.36;49.55;83.05;32.62;2
-7.53;-7.6;-11.09;51.38;46.41;45.73;2
-8.27;-7.1;-11.6;51.16;21.83;60.85;2
-8.7;-7.42;-11.99;48.56;15.94;82.36;2
-9.89;-8.99;-12.38;41.07;10.73;109.34;2
-10.58;-9.78;-12;31.19;-3.4;133.5;2
-8.69;-10.69;-10.91;27.13;-18.01;154.89;2
-3.6;-11.24;-10.01;23.58;-32.02;173.74;2
-1.7;-12.22;-12.74;5.21;-59.21;192.29;2
-1.09;-13.24;-14.78;-26.01;-94.69;200.79;2
0.03;-15.13;-14.86;-55.39;-116.63;196.15;2
1.09;-16.88;-12.65;-71.24;-111.64;185.89;2
1.13;-17.18;-10.73;-69.24;-101.35;177.15;2
0.87;-17.07;-8.77;-58.76;-87.01;175.15;2
0.96;-16.71;-7.45;-41.63;-53.1;180.6;2
1.91;-15.99;-7.88;-25.95;-16.23;185.45;2
2.91;-14.5;-9.11;-24.83;-4.71;186.84;2
2.56;-13.56;-8.95;-28.22;-5.44;185.84;2
2.72;-12.99;-8.73;-25.95;-20.67;185.23;2
2.33;-12.42;-8.75;-19.76;-44.23;181.47;2
1.55;-11.7;-9.31;-14.11;-61.13;176.01;2
1.25;-11.39;-9.84;-12.31;-66.97;168.7;2
0.82;-10.61;-10.45;-10.95;-64.98;156.86;2
0.99;-9.57;-10.83;-9.36;-57.59;144.31;2
1.71;-8.5;-11.26;-9.72;-46.33;131.89;2
2.85;-7.69;-11.21;-9.74;-33.3;119.42;2
4.04;-7.13;-10.61;-5.95;-17.87;102.98;2
5.09;-6.38;-10.11;1.33;-0.33;78.63;2
5.79;-5.52;-10;6;11.67;49.35;2
5.84;-4.61;-10.17;4.34;17.62;16.02;2
4.86;-3.9;-10.28;-1.47;13.48;-17.86;2
3.81;-3.31;-10.64;-9.91;2.9;-46.21;2
3.3;-3.28;-10.53;-23.03;2.02;-71.4;2
2.59;-4.1;-8.26;-33.05;-3.52;-99.96;2
0.79;-6.26;-4.7;-23.47;-22.29;-130.59;2
-0.88;-10.23;-4.22;7.63;-9.18;-165.08;2
-5.58;-13.86;-6;51.13;30.51;-194.86;2
-12.29;-13.32;-7.86;104.99;57.47;-200.2;2
-19.7;-10.48;-20.58;89.69;62.17;-172.7;2
-19.7;-12.81;-27.59;-19.02;31.86;-78.74;2
-19.7;-10.53;-17.81;-113.99;35.82;44.51;2
-19.7;-8.38;-7.59;-112.08;19.75;96.33;2
-7.04;-5.76;-6.19;-78.28;-21.05;78.34;2
3.74;-3.95;-4.65;-73.95;-79.44;44.37;2
15.37;-11.76;-2.19;-55.17;-120.99;-9.63;2
19.52;-19.55;-3.16;-6.04;-60.87;-72.97;2
11.96;-19.55;-0.73;64.35;49.09;-101.08;2
-3.02;-11.65;-22.29;30.5;3.22;-81.24;2
-19.7;-8.44;-29.68;-132.41;-46.45;4.28;2
-7.01;-14.15;-0.48;-115.99;-22.92;71.05;2
17.94;-15.22;0.54;24.47;-51.04;15.75;2
19.26;-7.24;-15.42;24.81;0.21;-4.41;2
11.45;-7.18;-16.22;-8.78;81.19;-101.08;2
2.51;-11.48;-13.26;-15.37;105.2;-105.92;2
-2.53;-13.57;-10.66;-2.31;74.12;-107.07;2
-6.52;-12.78;-10.54;10.27;36.39;-103.01;2
-6.33;-9.5;-11.99;18.7;-8.62;-89.88;2
-2.88;-7.59;-13.8;7.42;-27.52;-79.76;2
0.63;-8.67;-12.88;-2.79;-14.39;-80.13;2
1.55;-9.29;-11.81;-0.28;3.7;-86.09;2
1.79;-9;-12.3;5.43;22.69;-91.59;2
1.29;-8.59;-13.45;1.16;31.54;-95.96;2
0.84;-8.78;-13.34;-6.26;33.68;-100.16;2
0.25;-9.52;-12.16;-9.03;32.26;-104.11;2
-0.23;-9.58;-10.96;-4.25;29.79;-104.39;2
-0.43;-9.19;-11.18;-0.18;32.19;-104.03;2
-0.49;-8.87;-11.6;-3.18;35.76;-103.91;2
-0.31;-9.54;-11.04;-5.92;37.43;-102.33;2
0.48;-10.41;-10.11;-1.99;38.38;-102.05;2
1.17;-10.72;-9.74;6.12;39.12;-104.13;2
1.06;-10.74;-10.42;11.33;40.19;-104.96;2
0.65;-10.81;-10.84;11.51;43.31;-106.92;2
0.19;-10.89;-11.14;10.24;46.63;-105.07;2
0.63;-10.61;-10.75;11.33;55.99;-106.13;2
0.68;-10.95;-10.59;13.36;71.32;-106.3;2
-0.23;-10.66;-11.09;17.22;82.74;-105.37;2
-2.33;-10;-11.62;20.48;92.96;-104.28;2
-6.85;-9.29;-11.35;25.34;103.38;-96.31;2
-9.73;-9.19;-12.19;28.72;101.12;-78.96;2
-9.34;-9.61;-12.64;34.94;80.42;-53.85;2
-8.59;-9.01;-12.63;44.68;59.67;-27.21;2
-8.83;-8.47;-12.24;50.21;48.46;-5.11;2
-9.25;-8.43;-12.35;54.84;46.6;13.34;2
-8.62;-7.74;-13.52;51.64;37.74;30.63;2
-8.1;-7.88;-14.12;41.38;26.17;50.36;2
-8.64;-8.89;-14.43;20.3;19.19;76.12;2
-8.75;-9.91;-9.58;16.45;16.63;98.57;2
-8.42;-11.61;-7.84;37.32;3.26;118.72;2
-7.48;-11.25;-12.43;40.55;-34.02;144.54;2
-5.83;-9.99;-13.65;20.43;-55.86;166.88;2
-5.1;-9.76;-13.58;-7.94;-75.38;190.83;2
-2.02;-11.92;-12.44;-26.63;-94.6;207.17;2
0.38;-15.65;-12.42;-38.95;-111.75;208.31;2
2.08;-18.97;-12.38;-44.86;-100.09;196.92;2
3.13;-18.23;-11.96;-49.25;-65.68;181.86;2
2.99;-16.48;-11.77;-55.48;-59.08;173.38;2
2.52;-16.03;-10.37;-56.66;-50.46;170.96;2
1.72;-16.11;-7.48;-43.64;9.74;170.5;2
2.52;-14.95;-8.84;-31.05;41.19;171.7;2
2.25;-13.67;-10.01;-37.14;33.97;173;2
2.05;-13.05;-9.79;-43.74;13.07;169.99;2
1.38;-12.44;-9.36;-46.02;-20.45;162.7;2
-0.1;-11.32;-9.08;-43.05;-52.52;154.76;2
-1.34;-10.63;-9.07;-38.21;-72.98;149.3;2
-2.2;-9.65;-8.8;-29.94;-87.91;142.23;2
-1.13;-8.74;-9.07;-18.45;-87.47;132.13;2
0.12;-7.73;-9.56;-9.42;-80.97;118.61;2
1.36;-6.65;-9.74;-4.63;-74.67;103.05;2
2.77;-5.95;-9.47;-1.37;-66.35;84.99;2
3.87;-5.76;-9.29;1.62;-58.28;65.72;2
4.83;-6.01;-9.01;7.07;-50.04;43.61;2
5.71;-5.88;-10.34;6.52;-35.74;15.82;2
6.11;-5.83;-11.58;-1.41;-14.99;-15.42;2
6;-5.66;-11.22;-14.8;-2.08;-43.73;2
5.07;-5.46;-9.88;-25.77;-6.65;-67.47;2
3.24;-6.19;-6.63;-26.08;-24.33;-91.1;2
0.96;-8.89;-1.63;2.24;-39.49;-120.41;2
-2.03;-12.15;-2.3;42.72;-20.75;-152.53;2
-7.26;-14.55;-5.86;73.36;30.97;-175.22;2
-13.46;-14.28;-7.3;108.87;63.77;-172.72;2
-18.32;-11.15;-20.51;110.09;111.98;-137.27;2
-19.7;-8.29;-29.68;-12.89;131.45;-79.37;2
-19.7;-9.11;-22.66;-124.06;128.62;13.08;2
-16.12;-8.76;-9.34;-144.89;108.22;59.66;2
-8.89;-12.12;-4.53;-112.81;17;56.18;2
1.2;-15.39;-1.8;-70.63;-81.25;18.7;2
8.79;-14.29;-1.96;-20.34;-124.96;-10.75;2
12.79;-11.5;-5.46;9.67;-133.59;-48.02;2
6.59;-6.68;-10.75;-11.2;-68.71;-51.42;2
1.36;-5.44;-6.45;-14.22;54.6;-44.65;2
2.21;-6.34;-11.25;-10.24;58.71;-48.91;2
6.92;-10.46;-10.46;5.37;77.33;-55.27;2
9.01;-16.06;-13.01;28.58;79.1;-79.76;2
4.23;-13.56;-16.59;20.71;72.18;-107.04;2
-1.96;-10.22;-14.71;-2.71;55.09;-112.01;2
-7.12;-9.12;-11.89;-9.89;33.93;-100.34;2
-9.38;-8.03;-11.03;-6.27;4.67;-82.11;2
-5.92;-7.76;-11.05;-7.28;-39.09;-68.72;2
0.37;-8.65;-10.14;-7.49;-61.94;-65.64;2
4.55;-9.82;-10.15;0.4;-51.62;-80.5;2
4.72;-11.11;-10.92;5.95;-25.29;-101.26;2
3.38;-11.91;-11.93;7.47;-2.76;-115.15;2
1;-11.67;-12.49;2.66;4.22;-121.45;2
-0.79;-11.37;-12.14;-4.93;3.35;-119.89;2
-1.36;-11.5;-11.29;-11.36;2.65;-115.82;2
-0.81;-12.29;-10.32;-11.04;4.18;-113.19;2
-0.04;-13.3;-10.34;-6.17;11.03;-110.17;2
0.04;-13.15;-10.79;-0.94;16.92;-112.46;2
-0.39;-12.88;-11.3;-1.7;26.97;-117.33;2
-0.95;-12.68;-10.19;-2.03;40.66;-117.64;2
-0.7;-12.33;-10.1;2.51;48.87;-115.07;2
-1.17;-12.2;-11.01;9.27;42.42;-113.72;2
-2.24;-11.73;-11.77;7.88;35.62;-108.51;2
-3.15;-11.12;-11.44;5.3;33.01;-101.78;2
-4.09;-9.93;-11.97;3.15;38.54;-95.78;2
-5.19;-8.48;-11.34;2.31;56.58;-88.4;2
-7.18;-7.85;-10.06;17.11;72.52;-70.82;2
-10.1;-6.29;-10.45;35.37;74.83;-43.03;2
-13.78;-4.75;-10.88;44.46;53.35;-9.15;2
-14.55;-4.04;-10.43;54.27;18.11;29.24;2
-12.7;-4.24;-11.04;62.11;-16.87;61.36;2
-10.3;-4.44;-11.94;54.22;-35.59;81.99;2
-7.46;-5.1;-10.78;44.48;-43.04;93.24;2
-4.04;-6.17;-8.98;44.6;-33.07;99.09;2
-0.8;-7.29;-9.58;50.24;-9.71;109.61;2
1.52;-7.59;-11.57;46.16;15.48;119.11;2
-0.38;-8.98;-15.23;28.4;10.1;125.49;2
-4.14;-11.1;-15.63;4.79;-10.22;138.17;2
-5.67;-12.33;-12.59;-9.93;-31.22;151.6;2
-5.15;-13.61;-10.72;-10.8;-60.71;160.63;2
-3.62;-14.74;-11.14;-13.61;-86.29;169.1;2
-1.84;-15.8;-11.88;-23.4;-95.13;176.9;2
0.01;-16.6;-11.43;-30.92;-89.11;180.96;2
1.97;-17.25;-9.73;-27.96;-55.68;179.03;2
3.75;-17.21;-8.99;-18.99;-19.85;176;2
4.32;-16.23;-8.96;-13.38;6.96;174.7;2
3.71;-15.47;-9.17;-10.95;24.98;174.18;2
3.25;-14.65;-9.53;-12.4;36.95;172.9;2
2.33;-13.56;-9.62;-14.94;45.79;166.07;2
1.22;-12.24;-9.95;-19.7;48.11;154.37;2
-0.14;-11.23;-9.57;-26.02;36.87;142.74;2
-0.73;-10.83;-8.57;-27.44;16.36;132.23;2
-0.71;-10.82;-7.57;-18.79;-7.26;120.91;2
-0.47;-10.53;-8.03;-6.75;-23.58;106.59;2
0.44;-10.1;-9;2.17;-30.4;89.57;2
2.28;-9.64;-8.99;9.37;-37;68.78;2
4.13;-8.73;-9;17.18;-38.7;44.36;2
5.32;-7.79;-9.2;20.05;-34.38;14.3;2
5.34;-6.11;-10.21;13.97;-19.59;-18.31;2
4.35;-4.68;-11.02;0.86;-3.45;-47.47;2
3.56;-5.06;-11.12;-10.3;14.64;-77.77;2
2.23;-6.44;-8.47;-5.69;31.99;-106.5;2
1.09;-8.9;-6.39;18.08;43.9;-130.74;2
-1.27;-11.08;-6.7;40.25;68.92;-148.72;2
-5.25;-11.28;-7.83;64.27;95.98;-152.35;2
-8.55;-9.61;-12.33;91.32;114.41;-136.62;2
-11.77;-5.91;-21.58;71.86;100.41;-108.85;2
-15.99;-2.63;-26.96;-31.18;64.77;-65.33;2
-19.57;-2.64;-21.61;-134.7;46.82;-0.46;2
-14.76;-4.47;-10.79;-152.28;-1.3;40.12;2
-4.64;-5.32;-2.38;-114.5;-131.07;30.21;2
6.68;-7.79;0.48;-37.97;-229.35;-18.79;2
11.56;-17.97;-6.56;-17.04;-174.13;-51.56;2
9.86;-19.55;-4.15;12.76;5.32;-47.76;2
0.05;-9.75;-20.26;3.21;10.79;-52.71;2
-13.48;-9.01;-22.16;-98.05;-15.68;1.08;2
-2.79;-13.12;0.91;-31;-38.31;28.44;2
10.32;-9.38;-6.11;10.55;-34.31;-6.18;2
13.75;-9.44;-11.72;9.37;19.24;-47.34;2
8.55;-11.52;-13.68;-1.54;65.03;-78.73;2
0.57;-13.06;-13.01;-4.72;70.77;-89.01;2
-3.7;-12.82;-12.3;-3.54;35.29;-91.07;2
-4.97;-11.66;-11.06;-1.64;-12;-83.97;2
-4.72;-11.06;-10.82;-5.65;-55.22;-76.01;2
-1.41;-10.75;-9.84;-2;-59.13;-74.03;2
3.26;-10.35;-10.36;4.85;-41.02;-81.09;2
4.91;-11.47;-12.67;9.37;-15.37;-93.92;2
4.28;-12.49;-13.65;0.47;5.84;-107.75;2
2.98;-11.55;-12.46;-7.5;24.85;-117.31;2
1.17;-12.01;-11.4;-8.46;46.12;-122.69;2
-0.75;-12.2;-11.7;-8.89;61.74;-118.42;2
-1.83;-12.73;-11.66;-9.28;60.36;-111.16;2
-2.31;-13.18;-11.17;-5.7;58.68;-105.06;2
-1.88;-12.63;-10.58;-3.61;64.87;-102.79;2
-1.86;-13.28;-10.37;-0.02;71.25;-100.11;2
-2.19;-13.38;-10.79;5.44;68.12;-101.08;2
-3.64;-13.07;-10.86;5.82;57.83;-101.82;2
-4.22;-11.69;-10.14;6.62;51.38;-101.29;2
-4.73;-10.49;-10;8.59;53.47;-100.95;2
-5.18;-8.96;-10.08;12.5;58.71;-96.11;2
-6.41;-7.88;-11.09;21.86;61.51;-85.63;2
-8.55;-6.58;-12.63;32.32;60.9;-65.53;2
-10.95;-5.84;-13.5;41.49;46.79;-40.11;2
-11.64;-4.74;-12.58;42.62;32.34;-9.22;2
-10.8;-4.27;-10.54;40.22;17.76;19.79;2
-9.27;-4.6;-9.73;37.35;3.2;41.87;2
-7.46;-4.78;-9.54;36.38;-13.6;56.82;2
-5.38;-5.57;-9.05;39.4;-25.19;69.88;2
-3.02;-6.58;-8.33;47.12;-12.75;81.69;2
-1;-7.65;-8.5;56.85;20.56;92.55;2
-0.15;-7.82;-11.54;52.16;39.58;103.72;2
-1.72;-7.96;-14.8;35.82;30.88;108.82;2
-4.64;-8.94;-15.03;17.83;14.29;116.6;2
-6.47;-9.93;-13.39;4.92;-6.28;130.87;2
-6.77;-10.87;-12.66;-5.67;-31.01;146.73;2
-5.26;-12.05;-12.35;-21.01;-49.63;161.87;2
-3.05;-13.88;-12.57;-36.6;-73.83;172.58;2
-0.99;-15.97;-12.59;-48.49;-98.83;177.5;2
0.91;-16.99;-11.63;-53.45;-97.77;175.38;2
2.67;-16.67;-9.2;-51.17;-63.65;167.99;2
2.93;-16.4;-7.72;-37.04;-18.77;161.94;2
2.82;-15.37;-8.66;-27.59;3.06;157.7;2
1.31;-14.52;-9.22;-26.08;13.55;154.7;2
0.73;-13.27;-9.62;-27.75;15.35;153.6;2
0.29;-11.92;-9.93;-31.13;6.03;149.29;2
0.01;-10.55;-9.5;-34.27;-8.7;139.05;2
-0.75;-9.91;-9.2;-35.05;-32.26;127.49;2
-0.79;-9.68;-8.87;-32.89;-53.17;115.02;2
-0.5;-9.95;-9.06;-27.76;-65.26;101.27;2
-0.15;-10.12;-9.55;-22.96;-67.78;89.28;2
0.93;-10.4;-9.7;-18.43;-65.07;78.13;2
2.53;-10.29;-9.5;-11.84;-57.01;63.04;2
4.07;-9.78;-9.15;-3.35;-36.61;43.99;2
5.21;-8.85;-9.59;5.11;-8.1;19.18;2
5.03;-7.12;-9.54;7.87;12.09;-10.28;2
4.89;-5.87;-9;6.04;22.44;-42.59;2
3.12;-6.66;-8.3;3.79;47.41;-81.08;2
-0.62;-7.75;-7.58;11.39;73.89;-105.52;2
-3.73;-9.58;-7.16;29.35;85.49;-115.98;2
-5.35;-10.43;-9.48;44.72;94.8;-120.59;2
-6.8;-10.03;-12.05;51.75;91.06;-118.01;2
-7.87;-9.92;-14.8;49.07;83.93;-109.66;2
-10.77;-8.6;-19.18;25.04;102.22;-99.11;2
-13.64;-5.63;-21.9;-31.6;105.64;-73.06;2
-13.44;-3.03;-16.69;-93.13;60.34;-33.24;2
-8.02;-2.9;-7.82;-111.43;-63.68;-15.92;2
-1;-3.34;-6.43;-91.92;-204.09;-29.53;2
4.69;-9.33;-6.9;-52.45;-202.76;-56.27;2
9.71;-17.9;-3.54;-14.15;-50.11;-77.37;2
8.47;-18.24;-8.17;19.85;-2.49;-99.32;2
-3.23;-12.54;-17.77;-23.17;-2.8;-85.63;2
-8.13;-12.25;-11.34;-46.34;0.43;-39.63;2
-0.12;-11.03;-6.36;-16.11;-34.16;-34.92;2
6.76;-10.61;-7.13;8.11;-14.2;-51.05;2
9.39;-10.2;-10.84;15.97;48.55;-73.38;2
6.41;-9.94;-13.13;11.21;80.44;-82.36;2
1.68;-9.99;-13.09;12.68;68.4;-92.71;2
-2.62;-9.44;-13.01;10.51;38.51;-100.99;2
-3.87;-9.69;-13.16;0.98;-0.11;-97.47;2
-1.83;-10.03;-13.56;-4.77;-26.77;-96.8;2
-0.09;-9.61;-13.33;-9.92;-38.04;-100.85;2
0.92;-10.21;-12.74;-18.49;-32.26;-103.86;2
1.16;-11.31;-11.94;-18.68;-9.2;-104.03;2
1.4;-12.22;-11.85;-16.52;15.84;-109.32;2
1.47;-12.45;-11.25;-16.62;33.83;-111.27;2
1.02;-12.75;-10.17;-13.86;54.8;-108.25;2
0.25;-14.08;-9.79;-2.76;70.21;-101.24;2
-0.93;-13.4;-10.63;7.65;71.12;-99.73;2
-2.45;-12.8;-11.5;6.55;56.29;-97.47;2
-3.31;-12;-11.46;0.54;47.46;-94.17;2
-2.96;-11.25;-10.76;-0.51;42.5;-89.88;2
-2.75;-10.74;-10.59;3.76;35.75;-84.7;2
-3.71;-9.64;-9.79;10.92;35.84;-76.82;2
-5.15;-8.11;-10.47;18.58;39.74;-62.7;2
-6.64;-7.09;-11.53;23.62;37.93;-43.48;2
-8.35;-6.78;-11.42;27.66;23.67;-18.58;2
-9.09;-6.22;-11.02;36.6;4.15;5.37;2
-9.99;-6.14;-11.24;45.78;-28.13;30.07;2
-10.28;-5.58;-11;42.6;-44.81;53.23;2
-8.93;-5.45;-10.13;41.63;-53.33;68.82;2
-6.41;-5.84;-8.61;48.9;-42.57;84.18;2
-3.21;-6.27;-7.86;62.88;-19.3;96.87;2
-0.6;-6.91;-8.24;73.43;22.12;104.66;2
0.02;-6.93;-10.5;74.53;50.49;108.08;2
-1.68;-6.53;-14.41;59.99;44.16;111.47;2
-4.49;-7.84;-16.03;37.5;30.41;124.16;2
-6.26;-9.66;-14.26;17.83;22.96;143.54;2
-6.52;-11.21;-13.23;9.71;3.83;159.97;2
-6.17;-12.52;-13.23;1.84;-21.11;170.43;2
-5.23;-14.04;-14.09;-13.31;-47.57;179.79;2
-2.85;-14.84;-14.44;-34.21;-70.66;184.48;2
-0.61;-15.08;-13.49;-52.44;-70.31;183.19;2
0.96;-15.6;-10.51;-58.77;-41.07;181.31;2
1.53;-15.81;-8.94;-47.28;-27.44;182.02;2
1.56;-15.39;-9.37;-36.35;-18.93;178.36;2
1.08;-15.01;-10.01;-32.89;-11.76;175.22;2
0.32;-14.4;-10.45;-36.89;-5.07;167.84;2
-0.56;-13.46;-10.05;-41.6;-7.07;156.67;2
-0.69;-12.84;-9.17;-43.53;-21.84;145.38;2
-0.9;-11.94;-8;-39.21;-41.34;130.7;2
-0.48;-11.48;-7.43;-29.18;-59.71;115.61;2
-0.32;-11.48;-7.16;-16.53;-73.43;99.71;2
-0.07;-11.64;-7.05;-2.7;-82.75;86.62;2
0.82;-11.64;-7.36;11.87;-78.12;73.21;2
2.04;-11.68;-8.34;24.22;-61.81;58.64;2
3.04;-10.84;-9.23;32.19;-38.08;40.15;2
3.92;-9.34;-9.79;34.4;-8.88;17.37;2
4.5;-7.33;-9.68;30.55;17.53;-9.17;2
3.66;-5.62;-8.53;25.07;30.05;-38.39;2
1.22;-5.02;-7.74;22.53;36.31;-62.26;2
-1.27;-5.36;-8.89;21.37;55.39;-78.94;2
-3.26;-5.72;-10.25;22.64;82.17;-89.05;2
-4.34;-6.75;-11.98;20.38;104.86;-94.69;2
-3.44;-9.1;-13.75;9.06;122.51;-104.79;2
-2.95;-12.55;-14.41;-1.06;143.67;-121.68;2
-4.06;-13.6;-14.38;7.18;172.06;-134.43;2
-6.79;-10.66;-14.09;22.41;169.64;-130.78;2
-9.1;-7.45;-14.52;12.39;116.65;-118.04;2
-12.28;-6.22;-13.18;-13.53;37.91;-100.73;2
-13.89;-6.22;-11.65;-30.73;-30.74;-76.46;2
-12.59;-5.2;-12.27;-38.92;-84.3;-49.82;2
-7.4;-2.41;-13.76;-56.46;-136.81;-35.56;2
-0.38;-1.65;-12.15;-83.25;-176.85;-40.55;2
6.36;-7.1;-6.15;-85.82;-162.38;-58.19;2
10.89;-17.69;0.5;-35.07;-70.3;-80.61;2
10.2;-19.17;-1.83;34.18;22.83;-94.21;2
1.48;-11.59;-14.75;35.18;60.51;-94.77;2
-10.22;-8.38;-25.14;-40.73;51.13;-58.14;2
-11.87;-9.75;-14.87;-86.83;-6.66;-8.53;2
-1.96;-11.75;-0.83;-32.47;-52.84;-1.04;2
7.39;-9.44;-5.1;20.43;-37.93;-31.34;2
9.86;-7.27;-12.61;20.71;10.2;-64.99;2
6.95;-7.24;-13.62;3.07;45.42;-85.52;2
2.07;-9.22;-12.64;-3.44;44.52;-92.62;2
-1.96;-10.39;-11.97;-2.31;27.79;-92.4;2
-3.6;-10.64;-11.09;1.73;-1.8;-90.92;2
-3.47;-9.94;-12.18;3.94;-41.33;-90.91;2
-2.34;-9.5;-13.02;-3.28;-60.07;-89.71;2
-0.45;-10.05;-12.23;-9.79;-54.91;-88.01;2
1.77;-11.11;-11.34;-13.08;-33.31;-91.04;2
3.39;-11.61;-11.35;-9;-5.15;-96.29;2
3.38;-11.7;-12.13;-7.7;17.67;-103.49;2
2.26;-12.94;-12.04;-12.34;40.51;-106.81;2
1.58;-14.38;-11.11;-9.63;56.54;-107.07;2
0.67;-15.37;-10.82;-3.19;64.99;-108.14;2
-1.28;-15.22;-10.96;-0.63;68.17;-108.61;2
-3.57;-14.66;-10.48;1.97;63.33;-103.01;2
-4.64;-13.47;-11.01;4.1;53.5;-93.89;2
-4.58;-12.68;-10.98;3.08;38.82;-84.07;2
-4.35;-11.55;-10.57;7.69;29.84;-76.47;2
-5.82;-10.18;-10.08;13.61;29.54;-64.05;2
-7.68;-8.66;-10.41;20.82;30.77;-41.83;2
-9.06;-7.76;-11.14;29.77;24.29;-17.27;2
-9.37;-6.68;-11.45;38.04;4.25;7.15;2
-9.24;-6.14;-10.99;42.74;-22.51;29.99;2
-8.87;-6.19;-10.63;43.83;-41.56;52.12;2
-7.6;-6.44;-9.67;44.61;-38.04;71.58;2
-5.16;-6.8;-8.77;50.98;-26.99;85.79;2
-2.13;-7.28;-9.24;54.88;-9.71;95.57;2
-0.27;-7.87;-10.21;55.24;16.62;103.28;2
0.31;-6.24;-12.49;48.63;20.9;105.02;2
-1.55;-5.69;-14.07;37.14;5.7;106.42;2
-3.39;-5.87;-13.61;24.76;-3.18;115.07;2
-4.11;-6.16;-10.69;18.11;2.92;126.8;2
-3.54;-6.93;-8.91;24.82;12.01;134.65;2
-2.74;-7.97;-10.3;27.26;13.85;145.53;2
-2.2;-10.13;-11.98;20.7;11.67;153.34;2
-1.97;-13.11;-13.04;13.13;5.64;153.86;2
-1.38;-15.66;-13.33;8.2;1.19;151.87;2
-0.51;-16.5;-13.08;3.27;-3.92;153.79;2
0.22;-15.9;-12.88;-8.86;-9.18;156.36;2
0.65;-14.82;-12.86;-27.28;-17.39;156.47;2
0.28;-14.61;-12.64;-46.63;-22.87;152.99;2
0.28;-14.25;-11.51;-57.2;-18.68;150.41;2
0.41;-13.6;-9.89;-53.32;-9.97;145.6;2
0.23;-12.98;-8.99;-42.82;-5.2;137.5;2
0.36;-12.26;-8.57;-35.32;-7.01;124.65;2
0.75;-10.97;-8.09;-30.57;-15.4;106.69;2
0.72;-9.67;-7.45;-24.37;-31.22;85.83;2
0.25;-8.7;-7.27;-16.34;-52.91;63.47;2
-0.56;-7.76;-7.65;-10.7;-73.08;46.3;2
-0.85;-7.48;-8.78;-9.38;-81.05;35.5;2
0.14;-7.75;-10.03;-12.24;-69.93;27.3;2
1.41;-8.37;-10.13;-17.32;-53.23;14.1;2
2.76;-8.79;-9.47;-20.76;-34.01;-2.59;2
3.93;-8.9;-8.64;-17.33;-6.42;-18.27;2
4.86;-8.95;-7.83;-5.04;22.38;-39.06;2
3.66;-9.15;-6.48;11.22;38.69;-65.89;2
0.18;-10.48;-5.95;34.04;41.51;-86.83;2
-3.97;-12.44;-8.1;57.43;49.09;-98.38;2
-7.27;-12.66;-11.99;74.94;69.66;-105.64;2
-9.64;-9.82;-17.48;72.45;91.38;-106.14;2
-10.69;-7.01;-19.57;30.04;106.29;-91.99;2
-11.9;-6.72;-16.82;-34.08;123.64;-70.26;2
-12.56;-8.49;-11.39;-65.33;125;-43.52;2
-11.61;-8.06;-7.86;-57.93;80.49;-17.53;2
-8.75;-5.45;-7.8;-38.48;18.13;-1.92;2
-3.93;-2.78;-10.52;-28.03;-43.11;-4.4;2
0.22;-1.37;-12.89;-47.8;-76.62;-16.01;2
4.81;-3.67;-10.16;-77.49;-94.95;-35.41;2
10.24;-9.28;-6.54;-71.83;-108.75;-65.92;2
10.71;-18.02;-6.27;-30.8;-102.82;-90.37;2
5;-17.59;-7.06;2.01;-21.4;-91.53;2
-5.18;-13.42;-8.91;17.18;72.35;-76.36;2
-12.29;-9.75;-21.06;-23.37;13.22;-34.27;2
-9.91;-8.52;-15.14;-76.35;-44.42;26.99;2
3.39;-11.62;-0.61;-27.15;-48.04;24.99;2
12.29;-10.29;-3.57;27.43;-13.42;-22.48;2
12.76;-7.79;-10.89;30.31;52.73;-65.68;2
8.06;-8.25;-12.97;24.05;91.13;-91.36;2
-0.16;-10.46;-13.8;17.3;87.27;-100.08;2
-5.68;-11.04;-13.4;12.79;49.09;-90.94;2
-5.12;-10.05;-12.28;13.84;-13.29;-83.1;2
-3.3;-9.5;-14.26;6.34;-50.29;-81.57;2
-0.77;-9.43;-14.67;-13.16;-54.94;-79.7;2
2.05;-10.64;-12.26;-18.42;-36.74;-84.97;2
3.43;-11.96;-11.2;-12.74;-3.75;-98.55;2
3.12;-11.72;-11.7;-11.82;31.82;-105.79;2
2.23;-12.16;-11.29;-13.89;58.48;-109.27;2
1.58;-13.37;-10.87;-11.15;69.96;-110.01;2
1.04;-14.73;-10.09;-5.64;74.16;-109.16;2
-0.02;-15.25;-9.87;2.95;76.4;-109.78;2
-1.88;-15.38;-10.06;12;78.6;-107.45;2
-3.17;-14.45;-9.98;16.3;74.46;-102.9;2
-3.85;-13.54;-10.47;17.47;68.22;-96.32;2
-3.41;-12.67;-10.95;17.47;62.56;-90.98;2
-3.77;-12.41;-10.15;20.31;61.05;-85.51;2
-4.73;-11.69;-9.4;29.26;59.19;-77.59;2
-6.04;-10.17;-10.33;34.95;52.45;-66.72;2
-7.09;-8.97;-11.93;35.09;42.54;-49.61;2
-7.66;-8.23;-11.98;37.17;38.93;-31.45;2
-8.08;-7.07;-11.09;40.89;32.05;-15.56;2
-8.69;-6.11;-10.85;42.76;15.25;3.94;2
-8.8;-5.68;-10.88;38.18;-6.46;25.39;2
-7.99;-5.4;-10.58;33.83;-29.34;45.73;2
-5.79;-5.69;-9.96;35.11;-44.62;61.84;2
-3.75;-6.48;-8.75;38.24;-37.81;73.91;2
-2.26;-7.22;-8.75;44.52;-17.77;84.13;2
-0.94;-7.56;-9.08;48.69;5.53;93.12;2
-0.91;-6.38;-11.74;44.6;2.52;96.55;2
-1.92;-5.81;-13.38;34.13;-10.91;97.96;2
-2.3;-5.96;-12.3;21.72;-3.47;104.62;2
-2.16;-6.77;-10.24;19.04;15.93;113.31;2
-2.85;-8.19;-10.59;20.39;19.83;123.95;2
-3.88;-10.8;-12;17.76;15.07;136.79;2
-3.88;-13.51;-13.64;11.98;-2.5;147.06;2
-2.79;-14.4;-14.55;-0.2;-22.52;155.23;2
-0.94;-14.39;-14.18;-20.76;-30.14;159.39;2
0.56;-14.7;-12.65;-40.02;-31.59;155.02;2
0.83;-15.2;-11.48;-50.6;-38.04;146.47;2
0.03;-14.7;-11.02;-53.08;-45.3;141.7;2
-1;-13.41;-11.22;-53.67;-49.98;140.42;2
-1.28;-12.38;-11.44;-56.44;-47.72;143.34;2
-1.35;-12.08;-11.21;-60.63;-45.84;144.57;2
-0.76;-12.09;-10.4;-63.99;-49.49;141.12;2
0;-11.86;-9.33;-63.05;-60.57;131.63;2
0.41;-11.51;-8.33;-56.08;-75.07;119.82;2
0.68;-10.66;-8.25;-44.16;-84.28;104.87;2
0.38;-9.39;-8.6;-35.68;-93.37;90.67;2
0.73;-9.2;-8.58;-30.11;-103.74;78.54;2
1.43;-9.6;-8.54;-23.34;-101.22;67.25;2
2.58;-10.34;-8.82;-15.73;-80.35;53.99;2
4.04;-10.97;-9.5;-10.4;-47.01;36.86;2
5.34;-10.68;-10.08;-6.6;-5.28;15.02;2
5.81;-8.58;-9.5;-3.74;26.74;-10;2
5.09;-6.95;-8.24;0.6;31.56;-34.65;2
3.81;-6.46;-6.73;8.23;27.35;-61.2;2
0.46;-7.09;-5.92;16.8;30.19;-86.72;2
-4.04;-8.41;-6.36;36.66;37.54;-96.42;2
-6.38;-11.04;-8.98;53.03;55;-103.96;2
-8.68;-11.87;-12.73;55.61;88.12;-105.7;2
-10.04;-10.23;-15.12;46.73;103.72;-91.47;2
-11.65;-8.8;-16.96;19.23;106.58;-61.28;2
-12.56;-8.36;-16.34;-27.14;108.67;-28.82;2
-11.56;-8.17;-13.83;-57.11;102.51;-3.31;2
-9.43;-6.78;-11.54;-57.02;87.96;10.01;2
-5.22;-4.72;-10.87;-48.13;52;9.34;2
-0.6;-2.96;-9.71;-48.36;-15.04;-2.43;2
4.72;-2.03;-8.08;-42.63;-73.3;-31;2
7.41;-2.54;-8.1;-33.72;-107.97;-68.66;2
7.82;-6.86;-8.69;-38.24;-112.23;-84.27;2
6.01;-15.73;-7.41;-34.21;-48.92;-87.18;2
1.47;-18.89;-6.37;0.87;27.53;-82.33;2
-6.98;-13.09;-13.69;7.41;50.82;-71.04;2
-14.95;-9.5;-21.2;-48.97;17.61;-32.39;2
-10.67;-11.46;-10.72;-67.34;-68.3;12.69;2
0.84;-10.9;-3.64;-32.89;-106.01;20.18;2
10.14;-10.24;-4.58;-2.21;-53.1;-11.57;2
11.44;-8.96;-8.53;20.51;30.94;-48.73;2
8.19;-8.41;-11.83;24.4;75.96;-74.66;2
2.23;-9.49;-13.79;10.08;58.76;-88.28;2
-1.64;-11.6;-12.89;2.9;33.06;-93.11;2
-2.2;-12.26;-11.6;8.49;5.06;-92.99;2
-3.09;-10.69;-13.58;4.82;-23.3;-86.45;2
-2.34;-9.21;-14.69;-11.1;-48.8;-84.28;2
-0.84;-9.49;-13.9;-27.01;-47.53;-83.67;2
1.31;-10.65;-12.06;-30.87;-26.02;-87.4;2
3.42;-11.47;-11.38;-27.62;3.88;-96.59;2
3.93;-12.2;-11.43;-23.82;35.67;-103.27;2
3.1;-13.05;-11.31;-19.57;63.94;-106.83;2
1.95;-13.67;-10.96;-15.23;79.78;-106.48;2
0.75;-14.84;-9.97;-8.2;85.67;-102.09;2
-0.48;-15.12;-9.67;5.09;87.8;-100.16;2
-1.77;-14.41;-10.19;15.39;88.34;-98.66;2
-2.57;-14.04;-11.34;18.21;85.79;-96.5;2
-2.19;-12.77;-11.21;19.13;78.93;-97.19;2
-2.25;-11.72;-10.83;19.78;70.91;-96.2;2
-2.94;-10.28;-10.55;23.79;70.09;-89.59;2
-3.92;-8.92;-11.21;29.29;75.79;-78.38;2
-5.2;-8.12;-12.39;30.96;77.51;-65.02;2
-6.32;-7.87;-13.19;29.6;73.39;-51.44;2
-7.06;-7.54;-12.99;28.42;63.35;-37.99;2
-7.8;-6.77;-11.94;27.82;47.37;-22.89;2
-8.63;-5.65;-10.74;26.59;27.48;-6.09;2
-9.22;-5.34;-9.91;28.2;9.27;12.56;2
-8.72;-5.13;-9.81;31.51;0.86;32.99;2
-7.17;-5.38;-10.01;34.82;-2.69;53.83;2
-5.35;-6.14;-10.21;35.82;0.09;70.34;2
-4.25;-7.06;-10.12;36.83;9.58;83.41;2
-3.57;-7.63;-10.37;39.82;18.7;96.47;2
-3.18;-6.19;-11.81;37.15;9.16;102.82;2
-3.68;-5.86;-14.22;22.74;-14.3;109.02;2
-5;-7.64;-14.56;-3.02;-18.39;126.03;2
-6.2;-11.85;-13.15;-16.12;-7.55;146.42;2
-5.21;-14.7;-12.74;-6.34;-33.68;156.15;2
-3.53;-15.59;-14.42;-3;-77.35;160.63;2
-1.69;-15.84;-15.97;-16.77;-107.63;166.22;2
-0.05;-15.1;-15.6;-39.58;-116.14;167.7;2
1.07;-15.4;-13.35;-60.71;-97.66;166.15;2
1.59;-16.96;-9.67;-59.95;-52.42;165.7;2
2.41;-17.31;-9.51;-43.47;-39.86;164.32;2
1.87;-15.65;-10.35;-36.51;-38.1;164.84;2
0.97;-14.63;-11.1;-40.02;-33.21;165.34;2
0.66;-14.12;-11.2;-47.33;-28.04;163.89;2
0.03;-13.18;-10.61;-51.95;-30.14;156.65;2
0.48;-12.47;-9.62;-51.75;-39.56;146.52;2
0.29;-10.96;-8.65;-43.79;-50.13;132.12;2
-0.49;-9.52;-8.59;-31.8;-63.11;118.73;2
-0.26;-8.38;-9.42;-26.42;-67.42;109.67;2
0.58;-8.25;-9.02;-21.92;-67.33;102.12;2
1.42;-8.95;-8.66;-11.59;-60.44;91.31;2
2.45;-9.25;-9.47;-0.67;-43.56;74.7;2
3.71;-8.82;-10.06;8.26;-21.94;50.93;2
4.67;-8.07;-9.34;17.95;-10.26;23.43;2
4.4;-7.13;-8.24;26.72;-20.68;-4.19;2
2.92;-6.25;-7.8;34.03;-36.58;-27.38;2
0.57;-6.25;-7.58;39.06;-41.96;-47.44;2
-1.69;-6.27;-7.52;42.34;-38.05;-63.66;2
-3.59;-6.43;-8.07;48;-28.78;-71.11;2
-5.33;-6.95;-9.27;54.17;-2.88;-73.33;2
-7.02;-8.06;-12.33;48.73;51.99;-77.59;2
-8.58;-8.3;-16.47;22.53;124.73;-76.83;2
-8.91;-8.81;-17.66;-11.95;173.53;-67.46;2
-8.23;-10.48;-16.1;-37.82;174.96;-55.48;2
-8.29;-11.09;-13;-42.27;146.79;-40.39;2
-8.37;-9.53;-10.87;-28.82;113.66;-27.95;2
-7.91;-7.11;-11.09;-23.06;69.81;-22.62;2
-4.86;-5.35;-11.65;-33.02;25.19;-28.6;2
-0.89;-4.97;-10.62;-54.87;-39.08;-46.63;2
2.64;-7.29;-8.86;-61.46;-122.07;-76.49;2
3.09;-12.92;-8.72;-51.31;-156.41;-98.86;2
1.61;-14.59;-6.86;-30.2;-98.64;-96.41;2
-0.09;-11.85;-4.77;4.26;-0.94;-79.53;2
-3.66;-8.52;-14.11;-4.07;6.41;-58.78;2
-4.67;-8.35;-16.61;-47.99;-17.35;-21.07;2
3.37;-11.99;-7.78;-35.99;-28.1;-7.75;2
10.15;-11.83;-6.08;-4.11;-4.04;-43.64;2
10.93;-10.6;-8.71;9.55;45.64;-89.63;2
5.72;-10.19;-10.79;15.65;82.22;-114.54;2
-1.73;-10.46;-12.33;9.57;77.93;-114.88;2
-6.88;-10.6;-11.97;3.98;46.09;-102;2
-5.12;-10.21;-11.4;6.18;7.47;-87.47;2
-1.99;-10.32;-12.23;5.88;-25.39;-85.69;2
0.15;-9.96;-13.06;2.56;-32.55;-90.24;2
1.12;-9.4;-13.04;-4.01;-24.78;-94.88;2
1.91;-9.73;-12.29;-5.99;-11.43;-100.03;2
2.29;-10.54;-12.21;-6.8;5.01;-106.89;2
2.25;-11.25;-12.14;-10.35;22.16;-115.07;2
1.75;-11.38;-11.94;-9.08;35.9;-120.91;2
1.19;-11.01;-11.14;-9.51;46.19;-123.45;2
0.72;-12.2;-10.55;-9.85;56.79;-120.8;2
0.53;-13.49;-10.25;-2.24;64.63;-118.17;2
0.16;-13.94;-10.69;6.43;64.5;-120.21;2
-0.36;-13.76;-10.81;8.27;68.78;-119.11;2
-0.14;-13.64;-9.84;10.6;75.06;-117.79;2
-1.09;-14.42;-10.35;20.25;69.82;-117.11;2
-3.14;-13.24;-11.75;21.03;55.24;-114.69;2
-5.04;-11.91;-11.42;18.26;45.25;-108.91;2
-5.75;-10.92;-11.14;16.18;41.5;-96.22;2
-5.78;-9.56;-11.4;17.48;39.38;-81.96;2
-7.06;-8.94;-12.04;25.37;35.7;-61.04;2
-8.89;-7.57;-13.33;35.21;34.58;-33.18;2
-10.58;-6.05;-13.35;39.39;28.56;-2.75;2
-11.22;-5.23;-11.74;42.86;15.11;29.53;2
-10.67;-4.92;-10.48;45.95;-3.73;60.6;2
-9.66;-4.81;-11.19;43.34;-20.92;83.54;2
-7.89;-5.26;-11.54;38.33;-35.87;99.19;2
-5.88;-6.46;-10.35;35.6;-40.19;113.31;2
-3.26;-7.74;-8.26;44.23;-20.79;123.1;2
-0.24;-8.51;-8.24;56.67;11.22;131.39;2
0.73;-8.46;-12.48;50.67;16.58;138.23;2
-1.11;-9.5;-16.03;29.21;-6.72;144.38;2
-2.29;-9.89;-16.28;5.53;-30.72;148.78;2
-3.18;-10.08;-13.67;-11.81;-44.88;154.08;2
-3.4;-11.45;-12.03;-22.72;-57.92;158.11;2
-3.44;-13.86;-11.69;-27.63;-64.02;164.66;2
-2.36;-15.16;-12.26;-30.23;-68.57;169.01;2
-1.18;-15.32;-12.33;-33.52;-65.84;169.54;2
0.41;-14.92;-11.69;-35.48;-55.45;168.19;2
1.39;-14.83;-11.4;-39.73;-47.85;164.92;2
1.68;-14.79;-11.19;-44.91;-40.77;162.18;2
0.82;-14.88;-11.16;-48.36;-42.59;159.92;2
0.23;-14.38;-11.21;-49.41;-51.71;160.63;2
0.05;-13.65;-11.03;-49.14;-58.61;159.33;2
0.2;-12.76;-10.52;-46.46;-65.06;152.7;2
0.61;-12.13;-9.86;-40.31;-73.44;141.14;2
1.64;-11.54;-9.5;-31.76;-78.41;125.89;2
2.09;-11.24;-9.55;-23.73;-79.91;109.09;2
2.27;-11.18;-9.79;-19.26;-76.66;94.51;2
2.84;-11.4;-9.61;-14.77;-72.47;80.07;2
3.8;-11.57;-9.61;-9.4;-63.35;64.08;2
4.98;-10.95;-9.99;-3.23;-43.14;47.57;2
6.53;-9.54;-11.15;-2.11;-8.95;29.54;2
7.63;-7.08;-11.73;-10.55;26.7;4.28;2
7.38;-5.64;-9.89;-21.21;34.48;-29.27;2
4.83;-4.99;-6.44;-22.3;26.89;-66.22;2
0.61;-5.79;-4.51;-0.07;30.99;-92.98;2
-2.49;-6.55;-5.02;29.75;47.16;-111.53;2
-6.09;-7.53;-6.93;56.91;72.36;-117.17;2
-7.82;-9.93;-8.8;78.01;71.84;-109.56;2
-8.62;-11.47;-15.16;87.32;72.64;-95.46;2
-10;-8.93;-23.82;48.93;98.09;-67.85;2
-9.94;-5.8;-25.91;-31.92;148.77;-32.3;2
-9.22;-3.93;-21.19;-97.41;177.16;-4.32;2
-6.08;-3.44;-11.75;-121.37;120.56;1.96;2
-1.26;-4.93;-1.89;-105.76;-28.91;-23.19;2
2.51;-9.56;1.11;-48.48;-112.52;-62.5;2
2.09;-19.55;-5.65;-11.64;-114.54;-68.83;2
-1.19;-14.92;-9.4;1.59;-48.41;-45.39;2
-12.15;-7.81;-12.67;0.67;9.15;-17.78;2
-15.51;-5.24;-22.03;-59.95;-66.91;48.94;2
0.35;-8.8;-3.21;-35.75;-39.5;76.61;2
16.18;-9.67;-3.58;21.27;-33.52;31.29;2
16.27;-7.9;-13.2;16.63;31.04;-22.53;2
5.82;-8.47;-14.49;10.22;97.54;-48.07;2
-5.28;-9.14;-14.82;2.36;72.74;-48.02;2
-10.45;-8.46;-12.82;-7.04;31.28;-30.46;2
-7.9;-7.6;-11.01;-14.26;-0.11;-3.21;2
-0.9;-9.31;-11.73;-9.73;-38.52;1.43;2
2.91;-11.03;-13.15;-5.26;-26.18;-20.98;2
3.54;-11.71;-12;-7.22;3.39;-46.59;2
1.45;-13.22;-11.05;-4.88;26.41;-66.47;2
-1.51;-14.71;-10.34;1.11;44.91;-76.72;2
-1.41;-15;-10.62;10.14;44.51;-80.89;2
-0.7;-15.25;-11.91;15.06;39.12;-90.27;2
-1.22;-15.79;-12.73;17.5;39.23;-105.95;2
-1.46;-15.62;-12.32;19.37;40.52;-119.39;2
-1.17;-15.44;-12.03;19.43;33.47;-131.17;2
-0.55;-15.49;-12.57;21.98;27.85;-144.18;2
0.07;-15.25;-12.81;22.12;33.06;-156.84;2
0.35;-14.85;-14.7;21.65;55.97;-166.68;2
0.2;-14.21;-14.08;16.97;83.24;-176.68;2
-2.99;-15;-13.23;18.44;101.12;-181.11;2
-7.12;-14.57;-12.73;22.95;99.86;-174.85;2
-10.51;-12.36;-11.91;26.3;87.67;-159.77;2
-11.64;-10.52;-11.47;32.69;74.99;-137.76;2
-10.95;-9.17;-11.61;36.53;67.9;-115.98;2
-9.87;-8.71;-11.19;38.5;63.84;-94.94;2
-9.48;-7.73;-10.54;42.92;56.2;-76.04;2
-9.33;-5.71;-10.94;48.88;36.71;-60.86;2
-9.58;-3.98;-11.38;53.43;22.01;-37.99;2
-9.73;-2.49;-11.64;54.56;12.68;-8.78;2
-10.31;-0.97;-12.29;47.44;-4.27;18.02;2
-11.03;-0.73;-12.04;36.89;-34.42;43.7;2
-11.32;-2.11;-11.1;27.43;-57.7;71.1;2
-10.08;-4.07;-10.32;22.11;-67.35;95.44;2
-7.41;-6.52;-11.17;19.28;-74.95;124.31;2
-3.67;-5.85;-12;14.53;-78.81;143.05;2
-3.87;-6.06;-15.37;0.6;-94.94;161.47;2
-4.84;-8.42;-16.15;-19.96;-116.32;187.43;2
-4.46;-12.35;-15.15;-35.63;-116.41;210.8;2
-2.48;-16.34;-13.75;-37.79;-105.35;219.26;2
0.1;-18.86;-12.7;-29.34;-92.57;220.59;2
2.46;-19.52;-11.61;-24.21;-63.33;217.53;2
4.72;-19.39;-8.51;-18.61;7.09;208.39;2
5.97;-18.88;-7.8;-5.86;61.36;201.23;2
6.03;-17.61;-8.95;-1.42;78.91;196.25;2
4.72;-17.62;-9.77;1.11;74.34;193.2;2
2.06;-16.19;-10.72;-1.69;61.13;185.57;2
-0.61;-13.86;-10.91;-11.95;46.2;178.79;2
-0.6;-12.49;-10.52;-21.14;45.71;170.47;2
-1.69;-11.75;-9.53;-22.02;21.53;154.57;2
-2.51;-10.45;-8.79;-17.25;-10.79;137.23;2
-1.39;-9.22;-9.1;-12.88;-27.59;117.94;2
-0.01;-8.14;-9.81;-11.16;-38.42;93.15;2
1.73;-7.24;-9.95;-11.09;-48.13;63.81;2
3.46;-6.83;-9.86;-10.93;-57.55;32;2
5.18;-6.39;-10.2;-7.34;-57.07;-2;2
6.79;-5.91;-11.54;-3.78;-35.6;-36.63;2
7.53;-4.97;-12.3;-6.73;-8.92;-69.24;2
6.53;-5.63;-10.84;-14.93;7.93;-105.46;2
5.51;-8;-6.89;-6.58;16.8;-145.8;2
1.92;-11.73;-5.3;18.3;38.65;-174.61;2
-2.08;-13.92;-6.98;47.76;94.12;-192.58;2
-6.15;-12.87;-7.62;80.78;122.51;-188.25;2
-9.37;-9.77;-10.28;110.37;129.79;-164.27;2
-14.3;-5.73;-24.65;82.34;129.62;-130.24;2
-19.7;-2.63;-29.68;-56.02;85.86;-62.04;2
-19.7;-3.29;-22.79;-162.25;72.65;29.99;2
-18;-3.74;-8.13;-156.65;-7.19;73.57;2
-4.7;-4.16;3.01;-92.4;-173.71;57.08;2
11.81;-5.14;2.09;-8.8;-218.27;-1.89;2
18.79;-11.17;-6.53;-2.6;-158.3;-58.17;2
11.7;-17.95;-7.07;-0.38;29.07;-60.81;2
-3.84;-11.46;-14.99;25.2;39.87;-55.48;2
-19.7;-7.67;-29.68;-84.7;-96.72;19.18;2
-8.71;-11.2;3.81;-38.35;-66.58;98.49;2
11.27;-8.95;-4.72;34.5;-82.53;57.14;2
15.5;-7.27;-12.95;25.63;6.29;15.86;2
11.77;-6.48;-12.4;7.32;79.41;-2.95;2
5.4;-9.07;-12.21;6.43;56.07;-16.11;2
-0.47;-13.08;-12.72;1.64;42.63;-38.63;2
-3.62;-14.91;-11.67;4.88;12.73;-62.67;2
-4.69;-13.78;-12.54;7.75;-28.41;-70.01;2
-1.62;-13.89;-11.07;3.91;-34.57;-69.5;2
1.35;-14.71;-10.8;13.27;-22.39;-83.46;2
2.07;-14.8;-12.52;12.81;-3.13;-101.25;2
1.25;-15.16;-12.33;7.12;11.48;-113.62;2
0.4;-16.45;-12.79;5.98;16.77;-128.53;2
-0.27;-16.67;-13.63;1.08;17.29;-145.79;2
-1.29;-15.85;-13.42;-2.34;7.88;-156.15;2
-1.83;-14.52;-13.67;-5.28;7.67;-163.46;2
-2.76;-14.32;-13.51;-14.91;9.86;-166.23;2
-3.7;-14.99;-11.69;-17.88;19.17;-163.25;2
-4.53;-15.31;-10.22;-7.79;32.1;-158.33;2
-6.14;-13.76;-9.84;2.09;39.74;-152.51;2
-7.89;-11.96;-10.16;10.07;45.58;-139.94;2
-8.63;-10.45;-10.13;19.37;53.77;-124.8;2
-10.38;-9.06;-9.69;30.11;40.38;-104.05;2
-10.81;-6.06;-10.12;40;32.11;-72.69;2
-11.39;-4.18;-10.84;43.28;37.09;-40.64;2
-9.26;-2.95;-10.62;46.24;43.09;-12.6;2
-6.78;-2.43;-10.53;46.47;27.04;3.6;2
-6.37;-2.72;-9.78;46.78;-0.02;13.27;2
-7.47;-3.11;-8.72;48.78;-24.92;27.55;2
-8.06;-3.26;-8.86;55.53;-40.15;45.31;2
-7.26;-3.58;-10.05;56.6;-42.3;67.79;2
-6.39;-3.67;-11.97;46.49;-54.67;91.69;2
-7.07;-3.81;-15.63;30.14;-85.07;113.15;2
-6.37;-4.61;-15.28;6.63;-110.04;141.68;2
-4.55;-6.8;-13.75;-13.08;-111.55;169.79;2
-2.68;-10.22;-13.74;-26.66;-107.81;188.41;2
-0.97;-13.2;-12.25;-26.69;-92.71;194.79;2
0.53;-15.12;-11.2;-13.83;-69.07;194.83;2
1.88;-16.92;-10.27;-7.34;-14.97;190.25;2
2.69;-17.2;-9.43;0.78;37.31;180.88;2
3.02;-15.78;-9.9;3.23;51.63;171.92;2
2.17;-16.85;-10.33;0.94;42.2;166.49;2
1.05;-17.09;-10.16;-1.02;29.64;162.8;2
-0.15;-16.55;-10.18;-5.23;23.51;159.08;2
-1.44;-15.6;-9.9;-9.53;11.54;151.44;2
-1.83;-15.26;-9.9;-12.31;1.03;144.11;2
-1.86;-14.79;-9.85;-11.64;-8.78;134.79;2
-1.5;-14.35;-9.88;-9.78;-18.68;121.8;2
-0.97;-13.75;-9.25;-5.16;-27.24;106.79;2
-0.06;-12.67;-9.57;0.34;-28.13;90.99;2
1.37;-11.63;-9.9;4.55;-20.37;72.7;2
2.98;-10.95;-9.38;7.6;-16.75;48.08;2
4.88;-9.59;-9.65;8.49;-8.31;17.17;2
6.12;-7.6;-10.64;2.36;11.05;-18.02;2
7.09;-5.92;-10.39;-9.37;29.62;-57.39;2
5.61;-5.16;-8.85;-13.99;34.62;-94.69;2
2.79;-5.59;-8.85;-5.87;62.83;-121.35;2
0.96;-6.66;-8.05;13.77;103.99;-147.6;2
-1.48;-7.17;-5.3;32.82;103.09;-166.5;2
-5.16;-9.63;-6.1;50.59;108;-167.14;2
-9.52;-10.18;-10.34;91.27;165.3;-143.06;2
-11.66;-6.69;-20.7;103.92;191.4;-108.14;2
-12.21;-2.92;-29.65;12.38;114.58;-73.63;2
