acc_x;acc_y;acc_z;gyro_x;gyro_y;gyro_z;label
-0.54;-9.87;-9.99;57.91;38.21;49.48;0
-0.94;-9.71;-9.45;60.79;35.99;60.42;0
-1.34;-9.88;-8.54;63.5;27.61;71.37;0
-1.17;-10.4;-7.78;67.57;21.45;80.6;0
-0.97;-11.05;-7.82;70.79;15.87;81.89;0
-0.8;-10.93;-9.08;70.2;1.26;73.5;0
-0.44;-11.57;-10.52;63.72;-13.74;67.96;0
-1.18;-10.85;-10.86;63.07;-22.1;73.15;0
-0.7;-11.13;-11.27;64.22;-13.31;81.84;0
0.95;-10.8;-11.29;63.01;-18.93;87.72;0
2.37;-11.58;-11.65;60.92;-31.65;85;0
2.98;-11.76;-11.54;63.33;-29.73;77.7;0
2.93;-11.53;-11.32;68.18;-25.96;71.61;0
2.09;-11.53;-11.17;69.79;-26.19;66.88;0
1.42;-11.45;-11.28;68.21;-19.68;62.79;0
1.14;-11.25;-11.49;64.71;-7.43;56.25;0
0.71;-10.35;-11.45;57.17;7.62;49.5;0
0.51;-9.95;-11.7;46.49;23.9;44.14;0
-0.01;-9.61;-11.65;37.31;30.52;41.15;0
-0.1;-9.42;-11.37;31.08;28.79;39.54;0
-0.4;-9.69;-11.12;27.01;17.06;36.2;0
-0.74;-9.63;-10.49;25.89;3.95;35.33;0
-0.87;-9.51;-10.15;25.27;-9.04;32.79;0
-0.82;-9.3;-9.92;23.01;-20.39;28.5;0
-0.87;-8.7;-9.92;20.24;-28.02;26.53;0
-0.74;-8.23;-9.96;16.5;-33.42;25.18;0
-0.19;-7.62;-9.98;11.59;-34.87;23.01;0
0.36;-7.01;-9.9;6.71;-34.01;17.84;0
0.58;-6.87;-9.72;1.34;-31.13;11.98;0
0.63;-6.83;-9.58;-3.39;-26.89;6.79;0
0.63;-6.88;-9.36;-7.61;-23.34;0.72;0
0.39;-7.08;-9.13;-10.34;-20.65;-4.36;0
0.07;-7.38;-8.89;-11.97;-19.42;-9.17;0
-0.44;-7.57;-8.78;-12.43;-19.6;-12.63;0
-0.98;-7.91;-8.56;-12.4;-21.26;-16.01;0
-1.35;-8.14;-8.45;-12.83;-23.12;-17.44;0
-1.62;-8.08;-8.17;-13.57;-26.57;-18.74;0
-1.84;-7.9;-7.96;-13.5;-28.36;-19.49;0
-2.27;-7.85;-7.85;-12.92;-27.94;-20.6;0
-2.86;-7.79;-7.81;-13.04;-24.6;-21.55;0
-3.8;-7.94;-7.75;-14;-24.57;-22.15;0
-4.45;-8.11;-7.76;-15.81;-26.38;-22.56;0
-5.05;-8.25;-7.73;-17.95;-31.36;-22.91;0
-5.35;-8.4;-7.76;-21.21;-36.75;-22.94;0
-5.6;-8.66;-7.93;-24.7;-34.71;-22.46;0
-6.11;-9.05;-7.92;-25.4;-23.91;-19.71;0
-6.17;-9.39;-7.84;-21.81;-11.36;-13.88;0
-5.53;-9.14;-7.95;-15.71;-1.3;-6.77;0
-4.28;-8.46;-9.06;-14.53;8.69;-0.05;0
-2.31;-7.98;-10.88;-23.82;20.64;2.53;0
0.95;-9.02;-13;-44.37;36.49;-3.82;0
4.43;-12.34;-14.23;-76.12;58;-24.21;0
5.61;-17.25;-12.73;-107.83;58.07;-53.36;0
3.8;-19.55;-6.71;-109.01;18.61;-66.44;0
-2.13;-19.55;2.4;-35.04;-17.26;-52.58;0
-3.02;-16.83;-3.26;40.03;-27.28;-23.57;0
0.33;-10.84;-9.46;67.76;-11.28;-16.6;0
2.3;-6.47;-15.43;57.22;25.28;-18.24;0
3.71;-3.25;-18.27;13.84;72.56;-17.72;0
5.24;-1.66;-18.01;-44.42;104.93;-21.01;0
6.29;-1.97;-14.18;-89.61;113.42;-30.86;0
6.07;-4.71;-8.22;-90.11;102.93;-46.43;0
4.32;-8.14;-5.12;-38.73;86.7;-59.09;0
2.01;-9.84;-8.26;13.89;76.53;-63.88;0
-0.19;-10.99;-13.26;28.13;66.12;-64.08;0
-2.28;-12.47;-16.23;8.69;65.23;-61.42;0
-4.8;-11.82;-15.56;-22.95;63.6;-55.24;0
-6.67;-10.71;-12.67;-46.87;55.2;-40.66;0
-6.59;-10.54;-9.11;-52.97;40.43;-25.91;0
-4.09;-10.79;-7.03;-39.64;14.17;-20.84;0
-1.77;-10.72;-7.28;-16.02;-11.94;-22.96;0
0.21;-10.17;-9.56;2.05;-24.46;-24.34;0
1.06;-9.66;-11.97;6.6;-30.39;-24.13;0
1.86;-9.71;-14.01;-1.58;-37.26;-24.59;0
1.78;-9.28;-14.5;-14.85;-47.03;-26.02;0
1.01;-8.94;-14.22;-25.15;-53.72;-25.48;0
0.21;-8.85;-13.54;-32.79;-55.05;-23.59;0
-0.19;-9.12;-12.7;-39.08;-52.59;-22.72;0
-0.4;-9.46;-11.77;-42.84;-49.23;-22.77;0
-0.26;-9.79;-10.39;-42.5;-43.2;-21.96;0
0.16;-9.96;-9.59;-36.84;-34.52;-21.82;0
0.56;-9.79;-9.48;-29.28;-22.31;-20.8;0
0.76;-9.62;-9.75;-24.82;-12.66;-19.74;0
0.92;-9.69;-10.41;-25.24;-2.24;-20.86;0
0.76;-9.59;-10.72;-28;8.33;-20.05;0
0.59;-9.39;-11.03;-30.05;16.23;-21.01;0
0.81;-9.32;-11.1;-29.53;23.97;-21.11;0
1.08;-9.22;-11.55;-25.67;23.81;-26.05;0
0.84;-8.87;-11.51;-19.12;15.68;-30.31;0
0.94;-8.99;-11.94;-14.92;9.39;-34.04;0
0.62;-9.57;-12.26;-14.67;5.61;-38.92;0
-0.24;-9.99;-12.28;-16.57;2.93;-41.04;0
-1.07;-10.05;-12.24;-20.66;-2.28;-39.95;0
-1.38;-9.85;-11.98;-28.25;-6.15;-38.53;0
-1.53;-9.53;-11.45;-36.21;-4.32;-37.03;0
-1.62;-9.51;-10.91;-41.4;-0.66;-34.76;0
-1.35;-9.67;-10.37;-42.47;0.43;-33.81;0
-0.73;-9.89;-9.81;-37.75;0.59;-32.71;0
0.1;-9.92;-9.14;-30.88;3.05;-29.25;0
0.96;-9.92;-8.72;-22.38;9.3;-24.27;0
1.54;-9.8;-8.59;-11.04;17.25;-20.15;0
1.44;-9.79;-9.11;2.49;21.42;-17.5;0
0.65;-9.61;-10.31;13.05;24.19;-14.72;0
-1.24;-10.29;-11.74;19.05;29.04;-9.66;0
-3.2;-10.86;-12.63;22.48;27.2;2.79;0
-4.93;-10.86;-12.93;25.07;22.61;20.48;0
-6.03;-10.81;-12.66;25.6;18.86;41.91;0
-6.34;-11.1;-11.6;26.11;15.91;64.37;0
-5.82;-11.73;-9.61;34.24;8.94;84.88;0
-4.68;-12.2;-8.2;51.01;0.9;101.14;0
-3.53;-12.39;-8.24;68.31;-2.68;114.58;0
-2.56;-12.56;-8.88;77.52;-7.14;123.64;0
-1.6;-12.14;-9.44;79.18;-20.86;124.67;0
-0.21;-12.15;-9.61;79.5;-33.86;119;0
1.79;-12.5;-10.76;81.63;-30.2;113.44;0
2.56;-12.04;-11.11;78.5;-6.51;105.41;0
2.28;-11.78;-10.68;70.25;13.93;108.85;0
2.98;-12.89;-10.38;66.34;8.11;113.25;0
4.34;-13.27;-9.89;70.3;-14.59;109.28;0
4.52;-12.63;-10.22;89.29;-45.88;100.41;0
3.25;-11.67;-11.25;103.38;-60.68;90.12;0
1.25;-11.54;-12.04;104.83;-43.82;80.19;0
-0.77;-11.69;-12.19;92.18;-16.21;77.57;0
-1.63;-12.13;-12.14;74.05;8.63;78.57;0
-1.9;-12.43;-11.32;63.53;16.33;81.16;0
-0.89;-12.52;-10.98;63.76;11.74;78.53;0
0.11;-11.82;-11.15;65.41;-0.87;69.66;0
0.28;-10.94;-11.58;63.16;-16.82;61.25;0
-0.08;-10.06;-11.78;57.23;-29.88;56.58;0
-0.76;-9.38;-11.42;50.91;-39.85;59.97;0
-0.75;-8.55;-10.92;44.36;-47.91;64.9;0
-0.07;-8.2;-10.76;38.09;-49.94;65.92;0
0.52;-7.69;-10.61;33.7;-52.96;60.91;0
1.16;-7.37;-10.77;30.65;-49.16;54.83;0
1.53;-6.84;-10.82;25.3;-46.23;46.13;0
2.05;-6.34;-10.98;18.47;-40.84;37.79;0
2.46;-5.74;-10.86;11.01;-35.28;27.54;0
2.73;-5.2;-10.53;4.89;-29.84;15.79;0
2.43;-4.8;-10.22;-1.31;-26.17;3.67;0
1.68;-4.54;-9.6;-6.37;-27.49;-6.82;0
0.88;-4.31;-8.71;-10.11;-33.25;-16.33;0
0.17;-4.25;-8.29;-14.24;-44.43;-25.78;0
-0.59;-4.55;-7.9;-21.74;-57.12;-32.83;0
-1.22;-5.13;-7.43;-30.33;-67.99;-38.08;0
-1.85;-5.71;-7.06;-39.24;-72.91;-42.3;0
-2.64;-6.42;-6.25;-47.45;-66.58;-44.78;0
-3.34;-7.42;-5.43;-53.88;-48.34;-46.58;0
-4.76;-8.52;-4.26;-57.2;-22.17;-49.2;0
-6.16;-10.26;-3.99;-60.75;6.54;-53.14;0
-7.81;-11.58;-4.4;-60.79;40.74;-53.66;0
-8.48;-12.27;-5.5;-56.17;74.39;-44.58;0
-7.69;-12.08;-6.48;-48.21;98.54;-32.63;0
-7.46;-10.69;-7.35;-40.88;96.06;-21.72;0
-5.77;-9.98;-9.52;-36.27;90.51;-10.3;0
-1.88;-10.46;-12.11;-39.6;89.1;-7.11;0
2.9;-12.75;-13.94;-58.55;82.99;-24.46;0
6.17;-16.49;-13.37;-88.02;50.74;-55;0
5.35;-19.18;-6.27;-99.14;-21.76;-65.4;0
0.9;-19.55;4.04;-42.96;-79.12;-64.81;0
-2;-16.12;-0.85;42.64;-58.79;-51.84;0
-1.72;-12;-8.03;77.78;-13.07;-36.53;0
0.02;-8.28;-14.99;70.87;48.69;-21.55;0
2.6;-5.25;-19.74;29.08;127.95;-17.89;0
4.39;-2.3;-20.42;-39.53;163.09;-26.53;0
4.05;-1.27;-16.78;-98.2;146.23;-30.33;0
5.01;-2.93;-11.65;-125.61;107.58;-46.16;0
4.15;-6.79;-5.82;-98.05;68.27;-63.05;0
2.41;-9.32;-5.08;-34.34;49.77;-71.94;0
1.11;-11.03;-9.17;12.25;43.32;-77.37;0
-0.13;-14.05;-13.75;20.49;37.32;-77.98;0
-2.82;-14.78;-15.56;1.87;26.44;-81.58;0
-6.6;-12.03;-14.25;-21.2;14.12;-72.34;0
-8.45;-10.28;-11.87;-35.83;10.78;-51.5;0
-7.1;-9.26;-10.33;-38.24;2.43;-29.06;0
-4.43;-9.13;-10.69;-34.29;-10.49;-23.42;0
-1.71;-9.05;-11.25;-34.22;-17.33;-24.33;0
-0.84;-8.7;-12;-40.51;-25.68;-20.64;0
0.41;-9.09;-11.56;-48.92;-32.55;-19.88;0
1.32;-9.52;-10.74;-49.95;-35.93;-21.85;0
1.61;-10.03;-10.23;-42.04;-36.52;-30.15;0
0.81;-10.05;-10.08;-30.11;-30.92;-34.79;0
0.07;-9.69;-10.59;-22.25;-23.78;-35.28;0
-0.17;-9.34;-11.28;-22.33;-16.17;-35.23;0
-0.46;-9.15;-11.61;-27.41;-10.15;-33.48;0
-0.43;-9.03;-11.4;-32.59;-3.88;-32.64;0
-0.33;-9.07;-11.03;-33.77;2.62;-31.24;0
-0.19;-9.3;-11.04;-30.13;6.8;-32.69;0
0.36;-9.15;-11.52;-24.06;6.65;-35.75;0
1.37;-9.19;-12.05;-22.73;2.05;-37.64;0
2.26;-9.19;-12.38;-23.5;-0.96;-43.38;0
2.31;-9.37;-11.96;-22.8;-2.1;-50.14;0
1.6;-9.57;-11.54;-19.85;-2.5;-55.3;0
0.34;-9.92;-11.03;-17.8;-3.12;-56.12;0
-1.15;-10.22;-10.37;-18.79;-4.1;-51.14;0
-2.05;-10.34;-10.03;-22.07;-0.52;-42.5;0
-2.52;-10.2;-9.93;-25.72;8.53;-35.45;0
-2.92;-10.3;-10;-27.99;18.15;-32.02;0
-2.76;-10.53;-9.66;-25.02;22.13;-29.47;0
-2.59;-11.05;-9.43;-16.13;20.05;-27.62;0
-2.31;-11.26;-9.08;-5.96;14.5;-22.98;0
-2.21;-11.02;-8.38;2.79;12.45;-16.84;0
-2.3;-10.55;-7.96;11.34;14.85;-10.63;0
-2.98;-10.15;-7.83;22.08;18.19;-3.3;0
-4.57;-10.31;-7.87;34.14;19.25;9.15;0
-6.69;-11.65;-7.91;49.08;19.17;29.92;0
-8.01;-12.66;-7.53;67.44;23.49;54.67;0
-8.36;-12.28;-7.66;82.03;29.44;76.1;0
-8.6;-11.74;-8.08;87.12;26.22;95.41;0
-8.49;-11.6;-7.42;86.48;0.06;117.09;0
-7.14;-11.8;-7.53;90.43;-17.72;135.18;0
-5.22;-12.52;-8.75;97.7;-35.58;145.7;0
-1.76;-12.76;-11.25;93.85;-35.13;150.79;0
0.18;-12.56;-11.71;72.55;-23.89;155.33;0
1.4;-13.72;-11.87;53.74;-23.16;161.59;0
3.78;-15.92;-12.7;55.87;-60.13;154.68;0
7.01;-18.01;-13.99;72.65;-74.54;132.73;0
7.07;-15.27;-12.09;102.39;-69.1;118.5;0
3.75;-11.94;-10.92;118.42;-45.27;111.99;0
-0.2;-11.7;-10.91;110.97;-4.92;107.22;0
-2.97;-12.06;-10.29;87.59;30.38;110.89;0
-2.69;-12.21;-9.42;72.83;36.33;118.76;0
0.04;-12.12;-9.62;71.21;19.6;115.98;0
1.51;-11.3;-10.52;75.07;5.15;106.56;0
2.47;-10.57;-11.26;74.47;-4.97;92.01;0
2.32;-9.27;-11.23;66.34;-17.86;79.4;0
1.58;-8.82;-11.16;56.39;-29.2;71.7;0
1.61;-7.83;-10.92;46.57;-38.36;65.31;0
1.12;-7.4;-10.95;38.74;-51.87;57.05;0
0.82;-6.54;-11.65;28.92;-64.52;47.38;0
0.79;-5.74;-12.09;18.95;-71.49;39.41;0
1.24;-5.13;-12.12;8.08;-72.6;30.97;0
1.8;-4.76;-12.36;-3.31;-69.92;20.93;0
2.45;-3.96;-12.36;-14.48;-60.75;10.5;0
3.16;-3.4;-12.21;-24.12;-49.55;-0.58;0
3.18;-2.85;-11.85;-32.94;-37.91;-13.82;0
3.04;-2.53;-11.12;-44.13;-24.49;-27.88;0
3.28;-2.95;-9.8;-56.5;-9.1;-40.16;0
3.17;-4.53;-7.55;-64.57;-12.42;-55.03;0
1.95;-6.06;-6.33;-63.98;-24.91;-67.19;0
0.17;-7.82;-4.83;-66.46;-45.23;-74.73;0
-2.74;-9.47;-3.53;-65.92;-71.26;-82.37;0
-6.06;-11.31;-3.42;-65.05;-104.3;-90.88;0
-9.42;-12.66;-4.03;-67.24;-120.1;-91.04;0
-12.84;-13.35;-5.73;-74.73;-67.4;-76.27;0
-15.69;-13.69;-5.28;-80.53;34.08;-42.59;0
-13.22;-11.9;-2.89;-65.62;124.28;-2.53;0
-7.95;-9.63;-4.74;-43.14;171.64;14.46;0
-3.45;-7.24;-8.22;-26.85;180.81;18.92;0
3.03;-7.6;-12.43;-30.37;175.04;8.99;0
12.65;-15.25;-17.17;-73.81;137.81;-40.21;0
14.75;-19.55;-13.38;-125.61;13.3;-94.67;0
6.78;-19.55;-2.26;-115.11;-105.52;-96.53;0
-3.77;-19.55;6.1;9.05;-124.88;-53;0
-2.59;-15.66;-3.36;92.3;-96.2;-36.11;0
-1.14;-12.38;-13.84;109.4;-31.85;-31.44;0
0.59;-8.09;-20.9;82.11;72.16;-25.1;0
2.62;-3.25;-22.65;18.89;162.87;-24.25;0
3.84;-0.62;-20.94;-66.6;192.27;-28.5;0
4.28;-0.41;-16.41;-139.32;171.86;-38.01;0
4.21;-2.97;-9.35;-165;122.16;-50.75;0
4.17;-8.08;-2.66;-117.7;64.47;-68.08;0
3.29;-11.27;-3.93;-33.6;25.66;-78.68;0
2.57;-12.74;-9.23;20.15;5.9;-88.28;0
0.61;-15.05;-14.61;28.67;-5.28;-92.95;0
-3.19;-14.05;-16.08;7.37;-12.72;-90.94;0
-7.31;-10.92;-14.61;-20.88;-19.24;-74.63;0
-9.69;-9.4;-12.33;-41.81;-3.56;-44.64;0
-7.82;-8.66;-10.41;-48.38;15.06;-18.66;0
-3.6;-8.81;-10.32;-50.64;22.26;-15.82;0
-0.95;-8.73;-10.41;-52.4;24.11;-23.32;0
0.2;-8.6;-10.2;-55.75;17.66;-24.34;0
1.53;-9.44;-9.93;-56.36;7.65;-31.05;0
1.74;-10.05;-9.52;-51.11;6.85;-38.52;0
1.13;-10.08;-9.35;-37.22;15.47;-44.01;0
0.16;-9.72;-10.19;-22.75;25.45;-46.86;0
-0.81;-9.36;-11.39;-14.01;22.74;-48.14;0
-1.11;-9.39;-12.75;-12.76;11;-50.18;0
-1.23;-9.36;-13.66;-20.11;0.2;-51.65;0
-1.14;-9.31;-13.62;-29.63;-4.56;-51.49;0
-0.56;-9.47;-12.66;-34.62;-4.42;-50.78;0
0.11;-9.65;-11.65;-31.87;-2.47;-52.11;0
0.23;-9.8;-11.11;-24.34;-1.49;-54.88;0
-0.53;-9.97;-11.1;-20.73;-2.68;-56.17;0
-1.83;-9.87;-10.53;-22.93;-2.81;-53.33;0
-3.02;-9.49;-9.84;-27.42;2.61;-48.79;0
-3.89;-9.13;-9.52;-29.86;8.62;-42.28;0
-3.93;-9.75;-9.51;-29.66;8.34;-35.24;0
-2.91;-10.41;-9.51;-26.28;2.15;-31.29;0
-1.73;-10.8;-9.19;-19.34;-4.2;-29.03;0
-0.89;-10.82;-8.5;-9.61;-5.03;-26.74;0
-0.38;-10.7;-7.7;3.31;-0.34;-22.82;0
-0.43;-10.1;-7.47;18.3;7.48;-17.41;0
-1.37;-9.5;-8.21;32.14;14.18;-9.84;0
-3.23;-9.49;-9.22;41.37;16.5;2.32;0
-5.48;-10.83;-9.65;46.7;14.38;20.64;0
-7.36;-12.79;-9.54;57.03;17.87;44.47;0
-7.76;-12.98;-9.21;70.5;25.05;66.92;0
-7.76;-12.14;-9.45;75.27;20.99;84.53;0
-7.21;-11.38;-8.16;76.3;2.13;105.86;0
-6.32;-11.83;-7.7;88.52;-20.44;128.12;0
-4.32;-12.94;-8.96;103.48;-31.2;147.53;0
-1.16;-13.35;-11.98;103.67;-18.46;158.25;0
0.91;-13.5;-13.02;82.2;-6.01;162.47;0
2.27;-14.65;-13.42;50.93;-3.37;162.15;0
3.9;-16.43;-13.07;26.16;-27.39;152.83;0
5.51;-16.48;-12.37;43.96;-59.47;138.1;0
5.52;-15.3;-9.64;97.23;-71.33;129.08;0
4.39;-14.36;-10.87;120.89;-56.66;116.01;0
1.55;-13.12;-12.26;113.22;-49.44;100.34;0
-1.74;-11.01;-11.71;84.92;-25.61;93.19;0
-3.29;-10.49;-10.36;67.5;-8.68;104.07;0
-0.48;-10.44;-11.12;62.37;-13.8;110.52;0
1.46;-10.2;-11.88;56.87;-25.88;104.87;0
1.57;-9.5;-11.81;51.89;-37.47;97.19;0
1.5;-9.6;-11.63;46.16;-49.4;89.1;0
1.21;-9.27;-11.15;42.5;-58.73;84.94;0
1.1;-9.17;-10.51;39.18;-70.42;79.06;0
1.3;-9.37;-10.4;34.98;-83.91;74.21;0
1.16;-8.48;-10.27;30.31;-98.65;65.21;0
1.24;-7.37;-10.96;27.37;-101.23;58.08;0
1.76;-6.16;-11.48;24.31;-96.81;50.72;0
2.55;-5.11;-12.04;18.03;-83.59;40.59;0
3.13;-4.18;-12.21;9.24;-67.2;28.42;0
3.71;-3.49;-12.06;-1.55;-50.13;15.34;0
3.93;-3.09;-11.74;-12.94;-33.6;2.5;0
3.64;-3.12;-11.12;-23.74;-20.9;-10.98;0
3.24;-3.63;-9.92;-35.2;-13.1;-24.53;0
2.79;-4.41;-8.76;-42.61;-12.33;-36.89;0
2.17;-5.18;-8.27;-50.28;-17.91;-47.95;0
0.68;-5.94;-7.61;-62.48;-30.93;-59.86;0
-1.2;-6.98;-6.68;-74.2;-41.71;-70.34;0
-3.73;-8.02;-5.7;-82.06;-52.08;-80.21;0
-5.59;-9.65;-4.83;-84.12;-50.9;-86.5;0
-7.53;-11.49;-4.47;-84.92;-24.88;-90.49;0
-9.42;-12.38;-5.1;-85.72;21.74;-86.19;0
-10.16;-13.03;-5.61;-78.19;79.02;-69.04;0
-8.64;-12.26;-6.25;-64.11;119.18;-46.17;0
-6.78;-10.81;-7.39;-50.95;141.38;-29.14;0
-3.89;-10.23;-9.59;-44.45;145.9;-13.59;0
1.77;-12.34;-12.6;-52.55;142.87;-18.35;0
7.4;-17.62;-14.44;-80.47;118.17;-45.96;0
9.52;-19.55;-10.84;-109.42;43.45;-76.44;0
3.83;-19.55;-1.08;-95.93;-48.41;-75.24;0
-3.55;-19.34;3.27;6.42;-63.41;-40.79;0
-1.91;-12.75;-5.34;73.93;-37.28;-23.4;0
-0.18;-8.77;-13.7;89.76;16.84;-15.66;0
1.79;-5.09;-19.59;60.47;84.93;-16.75;0
3.47;-1.98;-21.49;-0.08;140.34;-25.57;0
4.59;0.06;-19.6;-70.87;157.01;-37.43;0
5.04;-0.44;-15.34;-122.05;132.57;-48.75;0
5.24;-4.03;-9.81;-128.99;87.42;-64.29;0
4.33;-8.92;-6.55;-80.64;50.98;-76.64;0
2.81;-11.16;-8.77;-19.84;37.02;-85.31;0
0.92;-14.69;-12.97;3.32;23.82;-88.03;0
-2.66;-18.62;-15.4;-9.14;13.1;-85.5;0
-7.15;-13.72;-14.07;-29.92;12.67;-81.87;0
-9.01;-9.04;-11.02;-44.11;14.42;-61.72;0
-7.63;-7.62;-9.28;-49.73;9.2;-39.88;0
-4.81;-7.69;-9.05;-49.07;1.18;-30.8;0
-1.93;-8.12;-9.35;-46.89;4.5;-26.57;0
0.35;-8.94;-9.96;-44.5;0.09;-28.29;0
2.44;-9.61;-10.76;-44.75;-1.79;-32.75;0
3.83;-10.43;-11.58;-43.21;-5.02;-40.13;0
3.46;-10.85;-11.95;-35.83;-3.3;-48.79;0
2;-10.52;-12.23;-26.51;5.65;-53.4;0
-0.08;-10.36;-12.42;-22.34;13.13;-55.19;0
-1.57;-10.46;-12.15;-24.99;17.24;-53.55;0
-1.96;-10.18;-11.67;-29.81;19.24;-51.6;0
-1.35;-9.85;-10.84;-31.6;17.87;-49.51;0
-0.36;-9.93;-10.08;-27.8;17.25;-49.18;0
0.3;-10.08;-9.83;-20.03;17.45;-49.72;0
-0.06;-10.16;-9.94;-12.78;23.35;-50.63;0
-1.17;-9.89;-10.07;-8.18;31.54;-50.27;0
-2.49;-9.13;-9.85;-5.47;41.5;-46.87;0
-3.8;-8.5;-9.4;-2.79;48;-44.7;0
-5.09;-8.52;-9.38;-0.73;46.35;-41.33;0
-5.69;-9.35;-9.46;0.24;35.6;-36.04;0
-5.53;-10.33;-8.83;0.19;25.55;-28.43;0
-4.93;-10.94;-7.54;6.23;20.99;-20.72;0
-4.66;-11.18;-6.24;23.73;17.95;-15.32;0
-5.59;-10.71;-6.09;46.67;15.9;-7.32;0
-7;-9.91;-6.56;62.97;13.33;8.68;0
-8.45;-10.09;-6.83;71.41;7.7;35.26;0
-9.71;-12.17;-5.96;80.26;-9.38;65.63;0
-10.09;-13.45;-5.19;94.96;-25.83;93.18;0
-8.76;-12.61;-6.34;108.35;-35.55;117.19;0
-7.04;-12.47;-9.72;118.92;-35.26;136.85;0
-4.42;-12.82;-12.56;118.22;-33.27;151.1;0
-2.15;-13.88;-12.95;99.9;-34.61;175.21;0
0.2;-16.2;-14.03;66.77;-38.22;199.76;0
3.18;-19.55;-15.51;28.28;-93.82;192.36;0
6.73;-19.55;-17.44;20.41;-120.84;155.05;0
4.52;-16.05;-12.13;57.73;-91.8;140.27;0
1.93;-14.89;-8.81;106.61;-68.03;153.99;0
1.09;-15.4;-9.95;117.06;-29.81;148.2;0
1.26;-16.67;-10.36;107.11;1.62;142.6;0
0.86;-13.72;-11.06;96.86;-10.89;136.06;0
1.75;-12.04;-12.49;84.63;-11.46;131.67;0
2.64;-9.89;-12.96;68.44;-22.42;122.41;0
2.46;-9.01;-12.73;58.61;-27.23;116.15;0
2.73;-8.16;-12.37;49.56;-28.12;109.76;0
2.1;-7.79;-11.78;41.12;-37.4;100.83;0
1.66;-7.32;-11.36;32.21;-56.82;92.8;0
1.84;-6.86;-11.1;22.79;-80.11;86.79;0
2.65;-6.56;-11.11;14.01;-98.55;76.47;0
2.98;-5.83;-11.4;5.94;-116.59;60.96;0
3.12;-5.21;-11.69;-0.88;-133.09;43.57;0
3.57;-4.24;-12.18;-5.71;-141.7;26.15;0
4.05;-3.8;-12.8;-11.37;-138.32;11.48;0
4.43;-2.64;-13.23;-16.02;-123.52;-3.96;0
4.77;-1.41;-12.97;-24.33;-103.13;-19.08;0
6.53;-0.96;-12.71;-37.91;-53.4;-32.87;0
7.65;-1.71;-11.44;-53.89;7.19;-53.29;0
7.65;-3.53;-8.91;-65.24;43.87;-78.91;0
6.4;-6.75;-5.91;-70.38;49.41;-98.82;0
-0.38;-9.47;-0.29;-68.53;-5.26;-114.55;0
-5.8;-12.2;-0.4;-59.42;-69.97;-121.82;0
-8.5;-15.3;-2.02;-60.8;-96.97;-113.44;0
-12.28;-17.2;-6.5;-93.67;-40.63;-101.91;0
-17.88;-16.95;-7.08;-118.67;92.98;-63.74;0
-16.04;-14.2;-3.89;-100.37;227.66;3.02;0
-9.47;-9.39;-4.07;-62.55;254.27;33.24;0
-4.27;-5.56;-7.85;-42.38;254.27;37.19;0
3.26;-4.64;-11.44;-47.33;254.27;22.84;0
14.77;-13.55;-15.33;-101.08;217.06;-40.63;0
18.63;-19.55;-11.72;-159.86;53.52;-112.21;0
7.96;-19.55;0.12;-133.74;-72.26;-119.66;0
-4.86;-19.55;2.69;24.61;-66.06;-65.17;0
-4.26;-14.23;-6.04;110.59;-58.33;-47.73;0
-2.71;-10.23;-16.35;116.85;-4.68;-44.63;0
-0.98;-5.38;-22.34;77.2;86.35;-41.98;0
1.3;-1.23;-23.82;10.31;163.54;-51.56;0
2.53;-0.14;-22.52;-68.24;178.64;-62.02;0
4.04;-1.14;-19.33;-131.81;150.12;-75.56;0
4.43;-5.1;-13.71;-158.18;74.67;-79.33;0
4.04;-10.19;-7.69;-129.56;-0.12;-79.11;0
1.25;-14.25;-7.16;-62.15;-30.64;-81.27;0
-2.27;-15.91;-10.3;-14.02;-19.11;-70.5;0
-5.4;-14.74;-12.51;-8.49;14.65;-64.85;0
-6.23;-10.09;-12.39;-30.05;31.51;-63.62;0
-5.97;-7.09;-10.78;-57.85;21.86;-52.11;0
-4.56;-6.71;-9.04;-74.93;14.34;-37.17;0
-1.74;-7.86;-7.17;-70.88;18.72;-27.56;0
0.93;-9.52;-6.9;-49.36;21.8;-30.76;0
2.28;-10.24;-8.57;-27.62;24.83;-39.05;0
2.93;-10.25;-11.3;-17.6;29.86;-44.58;0
3.06;-9.91;-13.45;-14.49;27.28;-52.37;0
2.29;-9.7;-14.4;-16.5;19.98;-57.56;0
1.31;-9.86;-14.08;-24.05;16.74;-61.8;0
0.39;-9.97;-12.47;-31.51;23.37;-67.43;0
-0.06;-9.95;-10.83;-33.42;34.32;-69.89;0
-0.28;-10.12;-10.61;-29.89;41.52;-71.87;0
-0.92;-10.26;-11.16;-25.7;48.12;-71.16;0
-2.03;-10.13;-11.27;-21.82;54.11;-69.44;0
-3.8;-10.31;-10.87;-16.76;53.07;-65.5;0
-5;-10.13;-10.19;-14.01;48.01;-59.83;0
-5.62;-9.92;-9.33;-13.89;41.85;-53.58;0
-5.83;-10.15;-8.36;-11.89;36.36;-46.88;0
-5.46;-10.82;-7.25;-3.45;30.4;-40.2;0
-5.09;-11.32;-6.27;10.47;29.83;-30.84;0
-5.13;-11.08;-5.74;30.16;37.7;-21.3;0
-6.13;-10.02;-6;51.33;47.96;-10.01;0
-8.07;-8.44;-6.77;66.5;50.54;7.29;0
-9.64;-7.71;-7.96;76.65;43.99;31.54;0
-11.16;-9.22;-7.69;87.42;20.94;57.73;0
-12.36;-11.02;-6.22;107.14;6.24;94.87;0
-12.33;-12.61;-6.92;131.05;6.89;128.34;0
-10.18;-12.8;-11.44;138.12;-20.11;147.93;0
-7.1;-12.62;-13.46;129.56;-79.8;163.14;0
-4.72;-13.68;-13.6;110.82;-144.79;187.44;0
-3.46;-19.18;-15.18;75.19;-155.89;207.14;0
-0.18;-19.55;-16.8;21.56;-175.33;208.22;0
5.03;-19.55;-19.38;-0.53;-175.75;190.94;0
3.94;-18.38;-14.84;20.84;-138.42;175.08;0
0.81;-18.82;-8.24;81.11;-112.48;181.9;0
0.92;-18.21;-9.18;109;-87.23;182.11;0
4.29;-19.27;-9.56;111.24;-74.27;176.5;0
9.23;-18.49;-11.9;106.71;-39.74;149.84;0
7.77;-11.84;-12.74;98.72;-10.71;126.24;0
6.08;-9.32;-14.35;74.29;16.88;105.69;0
3.08;-7.38;-13.53;47.51;22.96;96.2;0
1.79;-7.08;-12.43;34.68;13.55;93.44;0
1.36;-6.62;-11.22;28.67;-13.19;91.46;0
0.02;-6.45;-10.81;23.47;-64.99;84.75;0
-0.01;-6.22;-10.75;19.79;-97.75;85.05;0
0.95;-5.67;-10.91;15.22;-133.69;78.37;0
1.8;-4.77;-11.63;10.14;-157.35;65.54;0
2.46;-4.47;-12.53;6.62;-158.37;55.89;0
4.04;-3.8;-13.42;2.98;-148.01;41.78;0
5.66;-2.95;-14.31;-5.14;-129.76;25.21;0
7.26;-1.89;-15.03;-16.71;-100.81;9.49;0
9.18;-0.86;-15.08;-36.03;-52.49;-6.94;0
9.86;-1.12;-14.38;-58.11;8.44;-29.38;0
8.77;-2.38;-13.42;-77.26;63.22;-59.96;0
6.84;-4.21;-9.5;-95.18;57.58;-88.16;0
5.83;-6.18;-4.06;-105.89;-12.01;-106.56;0
-0.83;-9.22;1.33;-95.64;-126.65;-133.35;0
-6.52;-13.33;1.24;-66.04;-190.96;-150.53;0
-12.98;-16.82;-3.76;-62.2;-132.68;-158.31;0
-19.7;-19.55;-6.92;-104.8;33.36;-131.4;0
-19.7;-19.55;-0.06;-92.52;210.7;-17.05;0
-12.87;-14.9;-1.97;-42.21;209.06;50.78;0
-7.94;-7.2;-7.61;-11.26;217.32;80.48;0
1.59;-3.35;-12.59;-9.93;248.19;81.51;0
16.28;-9.73;-18.46;-60.6;246.7;47.89;0
19.52;-19.55;-18.62;-163.54;92.45;-52.37;0
19.52;-19.55;-10.42;-225.9;-94.71;-126.08;0
-0.49;-19.55;9.34;-93.57;-96.79;-91.88;0
-6.27;-17.65;-1.15;85.19;-53.08;-61.3;0
-4.92;-13.06;-12.47;148.18;-4.04;-60.5;0
-2.42;-8.13;-19.03;134.77;83.08;-53.57;0
1.12;-2.14;-21.7;71.04;158.77;-47.69;0
5.61;1.12;-23.85;-15.29;211.2;-55.76;0
8.61;0.32;-22.95;-97.37;229.7;-77.11;0
8.39;-2.45;-18.24;-149.66;180.83;-93.46;0
5.74;-7.97;-12.25;-157.02;89.46;-103.02;0
2.37;-12.61;-7.07;-116.07;43.72;-103.61;0
-2.25;-17.52;-6.28;-53.06;21.11;-94.34;0
-7.44;-18.62;-9.44;-9.19;19.15;-83.75;0
-9.6;-13.28;-12.1;-0.93;28.86;-80.46;0
-9.25;-7.41;-12.38;-20.66;12.31;-69.93;0
-7.88;-5.41;-12.11;-47.02;-1.68;-52.15;0
-4.71;-5.72;-11.38;-68.19;-10.46;-34.19;0
-1.09;-7.34;-10.39;-76.55;-13.01;-27.82;0
3.08;-9.78;-8.97;-63.4;-15.02;-38.37;0
4.52;-10.51;-10.01;-42.23;-5.85;-51.42;0
4.15;-10.4;-12.14;-31.42;14.09;-64.6;0
2.51;-9.91;-13.04;-29.26;25.6;-66.56;0
1.85;-10.25;-12.89;-35.7;27.74;-69.02;0
0.74;-11.01;-10.64;-36.53;32.45;-74.13;0
-0.52;-10.88;-9.11;-23.86;49.82;-74.51;0
-0.87;-9.9;-9.84;-8.74;67.62;-72.99;0
-1.64;-9.72;-11.02;-7.14;74.8;-72.53;0
-3.32;-10.02;-11.55;-14.31;73.66;-72.36;0
-5.49;-10.22;-10.77;-21.63;74.02;-69.22;0
-7.42;-10.28;-9.15;-18.68;78.45;-60.72;0
-8;-10.67;-7.98;-5.56;76.25;-49.26;0
-7.52;-11.42;-7.65;11.28;56.08;-39.38;0
-6.91;-11.66;-7.7;24.4;44.45;-29.37;0
-7.24;-10.74;-7.42;35.62;44.38;-17.9;0
-9.05;-9.52;-7.44;48.01;36.89;-1.56;0
-10.67;-8.97;-7.7;62.96;24.98;19.23;0
-12.66;-9.77;-7.47;78.85;8.09;51.02;0
-12.64;-11.57;-5.81;99.3;-9.17;86.25;0
-11.43;-13.15;-4.65;122.94;-9.44;121.28;0
-9.44;-13.41;-8.25;131.23;1.7;148.51;0
-7.34;-12.71;-12.37;117.63;-25.1;170.7;0
-4.08;-13.01;-13.48;96.06;-77.16;196.22;0
-1.46;-16.46;-15.6;77.95;-115.3;213.55;0
0.64;-19.55;-16.32;50.41;-161.99;208.52;0
4.85;-19.55;-17.79;33.24;-193.73;180.07;0
4.76;-19.55;-14.15;49.5;-123.76;159;0
1.48;-16.91;-8.32;93.09;-97.97;167.83;0
0.46;-16.16;-8.64;110.76;-91.54;168.74;0
3.17;-17.2;-10.15;106.72;-73.59;175.14;0
7.49;-18.16;-12.61;97.5;-40.84;155.65;0
7.47;-13.02;-13.43;89.86;-19.22;130.25;0
6.07;-9.71;-14.05;77.53;0.55;116.57;0
4.27;-7.69;-13.88;62.02;7.73;107.55;0
2.58;-6.67;-12.65;47.58;-9.82;103.79;0
1.65;-6.62;-11.92;37.4;-34.72;99.9;0
1.92;-6.13;-11.08;31.05;-50.97;96.47;0
1.82;-5.86;-10.62;23.86;-75.31;88.16;0
1.64;-5.35;-10.76;14.15;-105.62;78.27;0
1.95;-4.83;-11.23;4.29;-125.94;71.34;0
3.45;-4.58;-11.98;-3.89;-133.79;57.9;0
4.44;-3.87;-12.76;-11.14;-133.88;38.92;0
5.17;-3.52;-13.36;-19.32;-126.41;20.63;0
6.27;-2.44;-13.85;-27.6;-106.13;3.02;0
7.33;-0.96;-13.64;-40.29;-69.52;-15.43;0
7.25;-1.13;-13.16;-57.79;-27.9;-35.47;0
5.44;-2.25;-11.19;-76.03;4.22;-55.85;0
5.63;-3.48;-7.59;-93.28;-13.71;-82.03;0
3.51;-6.39;-2.56;-103.24;-66.63;-101.92;0
-3.81;-10.28;1.73;-86.66;-136.64;-123.24;0
-7.8;-13.69;-0.43;-69.6;-136.96;-135.21;0
-14.25;-17.52;-6.04;-92.76;-59.32;-133.9;0
-19.7;-19.55;-4.66;-117.76;89.16;-82.66;0
-14.25;-19.55;-0.76;-78.68;172.56;-8.92;0
-9.65;-11.95;-3.33;-30.62;193.9;42.07;0
-5.83;-5.82;-8.34;-13.13;218.93;69.94;0
1.97;-4.58;-13.19;-28.95;227.67;80.43;0
15.91;-16.91;-18.9;-103.28;151.44;35.48;0
19.52;-19.55;-17.97;-187.74;19.74;-44.93;0
13.43;-19.55;-6.23;-165.59;-53.89;-87.87;0
-1.48;-19.55;2.18;10.11;-22.04;-74.83;0
-3.27;-13.29;-7.68;114.11;14.99;-75.14;0
-2.1;-8.12;-15.56;124.29;56.8;-73.14;0
-0.14;-3.05;-19.49;76.24;118.58;-58;0
4.51;-0.37;-22.93;-2.68;182.01;-57.57;0
9.01;-0.73;-22.34;-78.8;220.5;-79.62;0
9.08;-3.13;-17.29;-113.82;184.89;-107.83;0
5.28;-6.49;-13.13;-109.11;112.4;-124.07;0
0.66;-10.37;-10.77;-87.13;64.93;-124.25;0
-4.47;-14.71;-10.33;-63.03;42.78;-108.27;0
-8.35;-16.56;-10.88;-44.95;26.25;-84.5;0
-9.42;-13.91;-11.51;-38.18;25.14;-73.79;0
-7.11;-8.33;-11.37;-45.45;16.27;-69.49;0
-3.92;-6.07;-11.2;-60.82;-4.82;-63.5;0
-3.14;-6.2;-9.83;-70.44;-28.24;-49.52;0
-0.35;-7.56;-9.64;-70.74;-24.91;-42.38;0
1.8;-10.19;-9.41;-57.33;-15.36;-49.35;0
1.86;-10.77;-10.93;-43.5;9.51;-54.93;0
1.87;-11.5;-11.61;-42.04;33.39;-61.9;0
1.71;-10.6;-11.63;-47.37;41.77;-61.63;0
1.41;-10.91;-10.08;-42.97;48.67;-61.58;0
1.03;-11.04;-9.62;-26.36;56.98;-68.73;0
-0.77;-10.54;-11.03;-10.52;69.51;-72.04;0
-2.26;-10.36;-11.94;-11.64;76.68;-74.53;0
-4.04;-10.32;-11.26;-25.66;75.2;-74.64;0
-5.34;-10.54;-9.79;-27.03;73.09;-71.37;0
-6.16;-11;-9.12;-5.24;79.53;-64.56;0
-6.64;-11;-9.96;14.87;76.25;-56.86;0
-6.63;-11.22;-10.29;19.54;62.97;-48.56;0
-7.35;-11.68;-9.6;18.05;46.9;-43.63;0
-9.33;-11.34;-8.43;25.6;28.04;-37.6;0
-11.08;-9.72;-7.26;43.13;16.89;-19.21;0
-11.93;-7.46;-5.66;60.89;23.38;8.76;0
-10.77;-6.51;-5.53;79.24;31.58;35.53;0
-11.64;-7.8;-6.54;98.18;13.45;73.22;0
-10.81;-9.82;-5.72;121.42;-2.65;104.72;0
-10.43;-12.66;-8.56;139.31;-4.75;135.02;0
-9.44;-14.03;-13.16;136.34;-43.77;159.85;0
-6.84;-13.34;-13.5;114.33;-100.16;185.6;0
-5.06;-15.66;-14.13;81.26;-130.62;217.73;0
-2.87;-19.55;-15.82;44.24;-159.4;231;0
3.24;-19.55;-17.83;11.05;-201.59;209.21;0
4.5;-19.55;-15.86;18.82;-150.28;179.85;0
0.07;-19.55;-8.44;83.4;-112.63;184.89;0
2.04;-19.55;-9.22;124.53;-88.73;191.51;0
2.62;-18.24;-9.75;119.71;-97.4;189.58;0
7.58;-19.55;-12.62;108.29;-71.53;189.83;0
10;-17.02;-13.72;102.5;-36.49;150.38;0
8;-11.92;-13.74;92.11;-18.97;126.37;0
4.53;-9.14;-13.67;73.94;-14.09;112.25;0
3.28;-7.84;-12.28;64.1;-3.32;116.29;0
2.84;-7.15;-10.94;58.14;-16.63;111.33;0
1.98;-6.29;-10.27;52.38;-47.51;99.57;0
2.4;-5.96;-10.39;48.45;-71.64;92.3;0
2.78;-5.16;-10.64;43.76;-97.25;83.37;0
3.4;-4.09;-11.13;36.2;-115.54;73.05;0
3.9;-3.25;-12.01;28.98;-129.03;63.37;0
4.97;-2.56;-13.39;21.76;-126.55;47.41;0
5.03;-1.19;-14.65;12.73;-110.64;34.63;0
7.73;-0.03;-15.45;-3.39;-84.13;10.54;0
8.66;0.89;-15.5;-27.39;-44.62;-15.4;0
8.64;1;-15.62;-57.91;18.17;-38.05;0
7.03;-0.03;-15.91;-94.1;65.54;-69.02;0
5.24;-1.89;-12.56;-135.24;47.73;-103.25;0
4.94;-4.06;-6.38;-171.58;-33.23;-129.02;0
-1.7;-10.72;3.74;-155.94;-165.44;-159.64;0
-4.85;-16.63;1.81;-122.31;-186.37;-185.12;0
-14.33;-19.55;-2.93;-127.7;-65.11;-208.45;0
-19.7;-19.55;0.8;-104.31;151.52;-125.12;0
-19.7;-19.55;1.08;-28.57;201.81;12.41;0
-13.54;-11.03;-6.98;20.92;193.54;80.48;0
-4.5;-4.82;-12.61;18.09;222.53;115.16;0
11.89;-9.92;-18.04;-44.44;166.16;102.87;0
19.52;-19.55;-19.07;-164.4;48.9;25.17;0
19.52;-19.55;-5.45;-239.62;-146.94;-56.32;0
3.65;-19.55;8.27;-52.26;-21.05;-70.89;0
-1.48;-14.36;-3.95;93.33;55.38;-74.08;0
0.52;-9.79;-16.52;135.56;65.03;-76.47;0
2.54;-5.26;-21.95;103.88;95.64;-76.88;0
4.78;-1.89;-24.46;36.56;141.16;-79.83;0
7.1;-1.69;-25.61;-38.7;169.23;-89.42;0
7.45;-3.2;-22.58;-98.29;165.84;-114.56;0
4.27;-5.8;-17.14;-124.72;120.08;-131.24;0
-0.47;-9.08;-13.47;-124.48;88.72;-129.43;0
-4.77;-13;-10.68;-112.11;74.29;-109.85;0
-8.35;-15.46;-8.06;-86.33;60.99;-85.72;0
-9.23;-14.33;-6.53;-50.99;42.79;-74.86;0
-7.59;-11.11;-7.3;-27.51;21.81;-72.57;0
-5.83;-8.08;-9.1;-28.74;-0.07;-60.23;0
-4.62;-6.6;-10.6;-45.64;-22;-46.56;0
-1.33;-6.86;-11.65;-65.4;-22.88;-38.33;0
0.83;-8.6;-10.5;-70.66;-26.98;-45.53;0
1.89;-10.98;-9.65;-55.28;-15.71;-56.29;0
1.92;-11.14;-10.28;-40.42;8.88;-66.58;0
1.32;-10.15;-10.76;-37.22;25.83;-66.61;0
1.57;-9.78;-10.61;-35.3;36.34;-65.3;0
1.61;-10.68;-10.24;-31.67;48.35;-68.37;0
1.15;-11.67;-10;-21.62;59.12;-70.01;0
0.06;-11.38;-10.38;-3.01;64.19;-69.7;0
-2.02;-9.99;-11.75;4.66;70.61;-72.21;0
-4.72;-9.64;-12.38;-8.05;81.87;-73.24;0
-7.82;-10.47;-11.61;-15.06;95.65;-66.75;0
-8.52;-11.02;-10.26;-1.03;88.83;-60.69;0
-8.41;-11.67;-10.18;11.11;56.13;-55.24;0
-8.56;-12.39;-9.88;16.45;20.44;-49.14;0
-9;-12.02;-8.86;21.28;11.83;-38.66;0
-10.13;-10.4;-6.35;28.31;20.95;-23.24;0
-11.09;-8.56;-4.18;44.84;18.84;-1.03;0
-11.9;-7.25;-3.55;64.77;4.46;23.89;0
-11.79;-6.87;-3.76;86.37;-20.13;55.72;0
-9.9;-8.03;-3.65;111.05;-36.75;86.89;0
-8.49;-10.75;-6.4;136.84;-27.42;115.48;0
-7.67;-12.73;-12.86;142.35;-36.59;140.41;0
-6.02;-13.12;-14.39;125.9;-81.48;162.65;0
-4.98;-14.82;-15.23;89.94;-108.99;194.7;0
-4.83;-19.55;-16.96;46.24;-134.93;214.54;0
1.07;-19.55;-18;-4.75;-206.62;203.04;0
5.53;-19.55;-16.76;-15.73;-199.48;172.08;0
1.15;-19.55;-5.48;65.59;-144.84;170.38;0
2.19;-19.55;-8.77;139.53;-96.05;169.59;0
2.5;-18.9;-8.94;144.16;-74.66;171.2;0
5.06;-19.28;-12.5;126.7;-66.13;173.13;0
10.7;-17.89;-14.6;108.14;-15.73;156.72;0
8.98;-11.27;-13.3;96.63;-2.84;129.44;0
6.48;-9.35;-13.64;79.38;14.67;111.53;0
3.34;-7.87;-12.94;64.38;15.69;107.53;0
2.63;-7.36;-12.63;53.97;9.87;107.05;0
1.27;-6.29;-11.76;43.62;-23.57;103.95;0
1.66;-6.47;-11.48;34.5;-46.61;100.28;0
1.99;-5.7;-11.09;24.45;-81.87;93.29;0
2.19;-5.34;-10.78;16.76;-113.9;81.71;0
2.77;-5.04;-11.03;9.58;-136.55;70.41;0
4.35;-4.4;-11.73;7.72;-144.3;54.2;0
5.44;-3.14;-12.73;5.22;-139.69;35.94;0
6.35;-1.45;-13.67;-1.47;-122.64;19.01;0
9.31;0.55;-13.74;-17.24;-85.68;-3.96;0
10.2;1.07;-13.29;-44.41;-38.53;-33.49;0
9.41;0.07;-12.87;-73.22;14.33;-68.05;0
7.08;-0.97;-10.86;-104.36;15.64;-95.25;0
7.27;-2.62;-6.2;-131.5;-34.3;-117.27;0
-1.01;-5.82;2.15;-115.98;-123.74;-143.14;0
-6.93;-10.81;-0.6;-92.24;-142.11;-156.37;0
-15.44;-15.8;-6.13;-107.08;-15.93;-147.64;0
-19.7;-19.55;-5.25;-141.05;180.71;-81.49;0
-19.7;-19.55;0.06;-101.47;249.48;3.91;0
-13.88;-17.49;-4.06;-28.08;236.49;49.47;0
-9.12;-8.31;-10.68;1.5;232.87;82.59;0
3.22;-8.22;-14.56;-25.76;147.84;96.11;0
19.52;-19.55;-19.97;-117.31;30.84;28.5;0
19.52;-19.55;-9.04;-184.58;-127.91;-68.84;0
2.42;-19.55;1.23;-65.13;-52.72;-95.92;0
-3.59;-18.04;-5.91;42.69;-1.32;-61.52;0
-3.2;-11.4;-12.55;71.98;-15.45;-38.43;0
0.73;-7.07;-17.19;60.3;35.56;-24.61;0
6.55;-3.8;-19.06;20.35;102.47;-29.67;0
10.17;-1.49;-19.68;-25.55;152.97;-49.46;0
12.25;-1.93;-19.08;-58.47;187.52;-75.54;0
10.13;-3.1;-16.9;-68.24;183.7;-110.46;0
4.15;-6.01;-15.39;-60.77;164.16;-130.64;0
-1.37;-10.03;-15.29;-55.12;145.53;-127.55;0
-6.63;-14.46;-14.79;-65.08;107.16;-113.9;0
-10.85;-15.97;-13.19;-73.72;64.04;-86.83;0
-12.56;-14.01;-10.56;-74.91;30.53;-68.65;0
-10.56;-9.81;-8.02;-71.4;13.65;-53.21;0
-6.37;-7.29;-7.31;-61.67;-12.28;-39.4;0
-3.77;-7.22;-8.26;-51.92;-46.25;-37.82;0
-2.01;-8.1;-9.73;-43.28;-64.54;-42.22;0
-0.71;-9.08;-11.29;-39.89;-53.44;-42.69;0
0.51;-9.59;-12.6;-45.28;-28.29;-49.57;0
1.41;-9.68;-12.95;-54.53;-0.29;-54.16;0
1.9;-9.48;-11.98;-63.94;16;-58.5;0
2.07;-10.69;-9.83;-67.42;22.06;-61.22;0
2.45;-11.47;-7.98;-52.48;28.68;-66.3;0
1.6;-11.85;-8.29;-25.85;43.54;-74.31;0
-0.73;-11.09;-9.59;-12.5;60.79;-80.39;0
-3.59;-10.49;-10.3;-15.46;64.16;-80.85;0
-5.93;-10.01;-9.98;-21.06;66.8;-76.7;0
-8.24;-10.53;-9;-9.41;79.08;-70.3;0
-10.72;-11.18;-8.77;14.5;86.37;-57.15;0
-11.3;-11.63;-9;29;67.58;-39.16;0
-10.28;-11.65;-9.35;32.13;47.69;-21.68;0
-9.99;-10.89;-8.94;33.79;26.74;-12.42;0
-10.88;-8.9;-6.51;37.49;13.61;-2.03;0
-12.64;-7.42;-2.93;49.18;-3.12;24.27;0
-12.5;-7.21;-0.51;79.66;-20.76;54.25;0
-10;-8.55;-0.58;121.06;-22.72;82.54;0
-8.3;-10.88;-4.87;150.94;-22.78;107.67;0
-6.69;-12.49;-10.28;158.13;-20.8;132.67;0
-5.58;-13.74;-13.74;145.49;-40.84;156.03;0
-4.81;-15.92;-16.2;120.84;-74.63;182.06;0
-4.13;-19.55;-17.93;85.96;-119.18;199.12;0
0.6;-19.55;-18.36;38.7;-194.17;181.8;0
4.05;-19.55;-17.77;13.53;-182.78;151.33;0
-0.95;-17.42;-8.72;38.7;-111.01;151.06;0
-1.07;-19.55;-6.51;109.85;-76.47;178.05;0
1.95;-19.01;-9.05;133.05;-62.01;181.37;0
3.75;-17.58;-11.86;129.49;-56.42;184.58;0
9.85;-19.55;-15.91;119.34;7.46;161.57;0
8.91;-13.36;-15.23;106.06;10.13;126.12;0
5.6;-8.77;-14.39;83.91;12.46;112.99;0
3.1;-7.59;-13.18;63.63;18.52;112.41;0
1.68;-7.19;-11.43;52.37;6.97;110.3;0
1.45;-6.43;-10.72;47.78;-10.55;105.05;0
1.38;-6.17;-10.91;37.86;-38.03;94.59;0
1.56;-5.46;-11.05;25.37;-66.84;83.54;0
2.03;-4.97;-11.14;12.5;-92.71;73.89;0
2.9;-4.5;-11.85;0.83;-113.68;62.7;0
4.52;-3.92;-12.78;-8.46;-129.35;45.26;0
6.11;-3.2;-14.06;-16.23;-129.38;24.02;0
7.32;-1.26;-14.29;-27.95;-116.94;-1.03;0
7.82;0.08;-13.9;-45.87;-99.42;-33.74;0
8.53;0.24;-14.06;-70.14;-63.53;-67.55;0
7.43;0.03;-13.97;-99.81;-26.1;-95.24;0
7.32;-1.35;-12.01;-132.39;-7.38;-111.16;0
8.48;-3.24;-6.79;-165.55;-55.34;-135.9;0
2.89;-8.74;2.83;-157.66;-136.2;-169.72;0
-3.9;-16.56;1.89;-114.57;-92.29;-187.14;0
-12.59;-19.55;-4.51;-94.59;86.11;-177.82;0
-19.7;-19.55;-6.98;-92.83;254.27;-80.01;0
-19.7;-19.55;-1.82;-33.6;254.27;50.06;0
-18.2;-7.25;-8.32;11.54;254.27;125.54;0
-5.06;0.14;-12.24;-18.97;244.64;156.57;0
14.53;-7.62;-16.36;-120.67;64.79;101.52;0
19.52;-19.55;-13.11;-226.15;-179.94;-31.27;0
12.91;-19.55;8.85;-103.82;-156.88;-127.63;0
-5.47;-19.55;-3.53;65.69;-32.31;-121.66;0
-7.37;-14.14;-12.67;119.14;-63.3;-83.14;0
-4.43;-8.06;-19.71;100.32;-20.42;-26.71;0
4.28;-4.63;-22.3;37.59;33.27;-3.21;0
11.61;-1.75;-23.02;-42.18;76;-30.56;0
13.88;0.42;-20.71;-105.11;106.32;-68.56;0
10.57;-2.29;-16.79;-121.12;139.76;-110.1;0
4.1;-6.61;-14.11;-98.4;155.21;-128.68;0
-0.87;-9.76;-12.93;-69.86;147.27;-128.91;0
-4.25;-13.93;-13.47;-60.05;112.2;-123.36;0
-8.36;-17.53;-13.3;-67.81;53.18;-109.11;0
-10;-15.21;-11.09;-77.08;12.1;-94.65;0
-9.02;-9.72;-7.92;-79.52;12.32;-78.52;0
-5.86;-6.79;-5.97;-72.18;-0.57;-59.07;0
-2.72;-6.82;-5.71;-52.6;-20.13;-51.44;0
-1.9;-7.82;-8.41;-28.83;-23.22;-50.11;0
-2.19;-8.67;-11.42;-15.51;-14.37;-43.93;0
-1.17;-8.75;-14.3;-22.77;5.48;-38.02;0
0.98;-8.31;-14.79;-44.1;28.05;-38.15;0
2.88;-8.47;-13.51;-65.92;28.79;-41.99;0
4.08;-9.77;-10.77;-68.11;19.64;-50.04;0
3.84;-11.34;-8.71;-44.79;28.37;-60.29;0
2.47;-11.84;-9.07;-17.88;56.97;-71.55;0
-0.15;-11.2;-10.32;-12.79;79.44;-75.26;0
-2.97;-10.7;-10.44;-16.09;91.51;-76.93;0
-6.08;-11.32;-9.59;-8.31;112.32;-74.21;0
-8.75;-11.77;-9.58;11.6;135.67;-65.47;0
-10.01;-11.53;-10.57;28.91;120.32;-53.5;0
-10.07;-11.6;-11.37;29.56;84.87;-42.66;0
-10.47;-10.92;-9.61;19.08;57.12;-32.56;0
-10.54;-9.97;-6.77;17.24;39.19;-15.3;0
-10.68;-9.04;-4.47;40.18;5.96;4.79;0
-10.68;-9.14;-4.24;77.87;-8.08;25.39;0
-9.82;-9.32;-3.98;109.15;-5.71;53.05;0
-8.63;-10.39;-4.78;131.19;-7.53;81.85;0
-7.62;-12.32;-8.49;139.16;-12.55;106.54;0
-7.53;-13.54;-13.86;135.19;-20.19;128.41;0
-5.93;-13.94;-16.28;119.51;-47.58;152.46;0
-3.68;-12.98;-16.64;91.49;-102.28;175.85;0
-3.15;-14.27;-17.04;55.87;-151.36;187.35;0
-2.59;-18.6;-16.38;8.82;-229.44;185.87;0
-0.23;-19.55;-15.52;-24.63;-244.9;175.76;0
-2.32;-19.55;-6.4;8.62;-148.7;179.53;0
1.58;-19.55;-5.99;110.27;-111.92;186.21;0
3.84;-19.55;-8.15;143;-102.61;174.79;0
9.1;-19.55;-13.76;141.98;-72.42;166.75;0
13.24;-18.07;-15.76;129.87;-17.63;126.95;0
9.76;-10.6;-14.03;111.65;-14.61;102.31;0
6.64;-8.52;-13.59;90.01;13.66;96.79;0
4.46;-7.79;-11.89;76.85;46.21;100.56;0
2.69;-7.47;-11.26;70.14;41.35;94.49;0
0.6;-6.89;-11.24;61.48;7.15;90.38;0
0.1;-5.89;-11.15;48.03;-26.26;90.79;0
0.79;-5.52;-11.45;35.21;-63.2;87.31;0
1.51;-5.16;-11.7;22.58;-99.49;77.65;0
2.58;-5.03;-12.24;10.15;-125.94;61.8;0
3.62;-4.43;-12.84;1.3;-139.15;42.57;0
4.1;-3.11;-13.51;-5.15;-137.16;22.07;0
4.51;-1.98;-14.35;-11.7;-124.55;1.58;0
5.96;-0.33;-14.33;-26.3;-97.98;-20.04;0
7.48;0.94;-14.16;-51.66;-52.01;-42.1;0
8.26;-0.11;-13.69;-81.53;9.25;-67.89;0
7.71;-2.08;-10.75;-114.41;37.28;-89.24;0
8.31;-4.63;-6.56;-151.76;8.06;-112.36;0
0.75;-8.01;1.32;-148.66;-78.71;-139.43;0
-5.82;-13.3;1.04;-98.79;-87.96;-152.69;0
-12.04;-16.99;-6.79;-59.87;5.31;-153.31;0
-19.7;-19.55;-11.7;-87.7;93.26;-112.69;0
-19.7;-19.55;-5.51;-97.86;213.48;-17.83;0
-16.2;-14.42;-4.09;-52.19;254.27;53.53;0
-8.11;-8.49;-8.32;-32.57;204.74;87.8;0
4.77;-12.37;-12.6;-69.59;83.4;81.73;0
16.51;-19.55;-14.86;-122.56;1.36;17.92;0
19.52;-19.55;-7.1;-128.26;-117.15;-63.79;0
5.71;-19.24;-2.48;-11.55;-37.54;-95.41;0
-1.16;-10.73;-8.93;69.96;5.62;-79.55;0
-1.7;-6.09;-15.66;79.5;13.09;-59.79;0
1.18;-3.15;-19.56;41.3;52.15;-47.34;0
5.7;-0.72;-21.21;-11.68;105.54;-61.54;0
8.53;-1.2;-22.02;-57.34;164.25;-77.65;0
9.56;-2.87;-19.86;-85.08;166.9;-102.94;0
7.15;-5.91;-16.07;-95.47;123.21;-121.99;0
1.8;-9.55;-13.12;-91.24;86.57;-120.4;0
-2.91;-13.47;-11.39;-84.97;75.29;-96.43;0
-6.01;-16.34;-9.33;-77.57;61.23;-73.87;0
-7.9;-16;-7.03;-56.7;56.05;-66.56;0
-7.44;-11.51;-6.54;-30.7;52.83;-64.69;0
-5.46;-8.03;-8.12;-19.73;27.4;-56.63;0
-3.33;-6.69;-10.73;-25.65;6.14;-48.86;0
-1.62;-7.07;-12.43;-42.21;-4.88;-42.43;0
0.2;-8.55;-13.4;-58.31;-15.39;-44.49;0
2.4;-10.32;-12.86;-63.03;-22.89;-55.19;0
3.03;-10.93;-12.1;-56.6;-15.01;-69.11;0
1.55;-11.28;-10.91;-49.52;5.87;-78.28;0
0;-11.52;-9.09;-45.63;27.64;-78.45;0
-0.04;-11.2;-7.77;-36.29;38.12;-77.87;0
-1.15;-10.45;-9.25;-28.44;38.09;-76.28;0
-3.46;-10.58;-11.15;-26.02;43.19;-73.76;0
-6.04;-11.01;-11.23;-29.15;58.9;-68.72;0
-8.02;-11.11;-8.75;-21.4;73.43;-58.48;0
-8.66;-10.59;-7.49;-4.16;81.51;-47.53;0
-8.24;-10.5;-8.09;7.43;61.37;-35.85;0
-7.43;-11.54;-8.93;14.43;29.6;-23.7;0
-7.5;-12.18;-8.55;20.4;16.08;-12.4;0
-8.62;-10.88;-6.44;30.95;28.34;-2.54;0
-10.45;-8.89;-4.27;48.35;34.77;12.44;0
-11.27;-7.25;-4.22;72.87;15.35;32.48;0
-12.5;-6.96;-4.06;98.86;-9.33;62.97;0
-10.97;-7.38;-3;128.6;-15.57;95.76;0
-8.67;-10.52;-6.86;147.5;-4.07;128.5;0
-7.44;-13.95;-12.96;150.31;-15.98;159.52;0
-6.68;-16;-15.35;139.71;-79.99;184.7;0
-4.04;-17.98;-15.96;101;-96.66;204.45;0
-2.19;-19.55;-15.51;40.28;-163.86;201.96;0
3.86;-19.55;-17.65;1.6;-199.87;176.8;0
2.55;-17.51;-13.99;26.63;-174.75;160.35;0
-0.46;-18.45;-6.44;100.15;-150.07;180.15;0
1.47;-19.55;-9.02;136.71;-110.23;179.75;0
5.8;-19.55;-11.81;141.13;-67.2;180.64;0
12.01;-19.55;-14.65;138.47;-9.45;156.92;0
11.06;-14.28;-15.17;130.59;-7.42;115.67;0
7.61;-9.86;-15.46;105.15;-2.28;98.25;0
3.3;-8.62;-14.48;82.35;12.98;104.21;0
1.84;-7.6;-12.61;65.47;15.36;108.15;0
1.44;-6.55;-11.32;54.63;-7.05;104.07;0
0.91;-6.07;-10.96;43.85;-33.59;96.45;0
0.93;-5.04;-10.96;32.33;-63.21;88.6;0
1.7;-4.89;-11.78;19.54;-87.25;77.05;0
2.75;-4.02;-12.43;6.93;-106.04;66.25;0
3.73;-3.4;-13.26;-5.08;-124.25;47.89;0
4.51;-2.44;-14.2;-16.75;-132.87;26.98;0
5.54;-0.77;-14.6;-28.63;-127.27;5.31;0
6.63;0.22;-14.4;-45.64;-101.83;-16.88;0
8.42;0.74;-13.89;-69.7;-53.14;-43.17;0
8.08;0;-13.87;-101.25;-2.2;-68.39;0
6.31;-1.77;-11.79;-139.28;15.6;-88.73;0
7.6;-4.15;-8.2;-171.95;-17.81;-101.44;0
3.78;-8.22;0.26;-170.05;-96.92;-128.21;0
-2.94;-14.8;1.09;-115.69;-104.33;-144.33;0
-9.43;-19.55;-3.33;-74.86;-28.78;-155.22;0
-18.05;-19.55;-7.85;-81.22;84.49;-120.73;0
-19.7;-19.55;-3;-71.82;197.42;-32.41;0
-16.76;-16.47;-4.53;-28.21;254.27;57.2;0
-7.4;-9.22;-10.37;-11.47;254.27;91.83;0
6.95;-10.6;-14.88;-65.53;254.27;83.66;0
19.51;-19.55;-16.35;-156.21;175.29;27.81;0
19.52;-19.55;-4.52;-179.28;-40.88;-30.08;0
9.77;-18.2;3.65;-48.45;-69.29;-70.06;0
1.64;-11.42;-6.04;98.98;8.33;-88.39;0
-1.31;-7.66;-15.29;144.72;49.01;-94.56;0
-0.9;-3.49;-20.89;113.85;106.31;-80.02;0
2.25;-1.41;-25.73;47.4;184.95;-82.4;0
5.61;-1.64;-26.35;-22.81;213.45;-108.19;0
5.96;-4.23;-23.48;-74.13;170.9;-129.69;0
3.46;-8.54;-18.09;-110.7;63.43;-145.93;0
-2.43;-12.99;-14.34;-134.47;-14.18;-132.38;0
-6.93;-15.57;-10.49;-139.56;-35.72;-96.76;0
-10.21;-15.53;-5.59;-115.09;-7.55;-65.01;0
-9.88;-11.68;-2.8;-67.44;6.2;-51.98;0
-7.23;-8.68;-5.05;-30.66;-6.62;-46.13;0
-4.84;-7.51;-8.85;-22.47;-11.72;-36.58;0
-2.14;-7.2;-11.37;-36.66;-3.54;-28.53;0
-0.13;-8.54;-12.33;-55.87;-1.76;-28.27;0
1.96;-10.24;-11.35;-63.12;3.46;-35.56;0
3.14;-11.53;-8.85;-49.51;16.2;-49.96;0
2.16;-10.89;-8.56;-31.53;37.16;-57.08;0
0.46;-9.12;-9.7;-21.69;47.79;-54.54;0
-0.56;-8.12;-10.65;-16.05;45.9;-50.69;0
-1.61;-8.58;-10.93;-16.9;48.23;-48.2;0
-2.58;-10.39;-10.49;-22.31;67.97;-49.61;0
-4.07;-12.09;-10.23;-17.34;94.85;-54.71;0
-6.15;-12.09;-11.09;3.76;95.02;-55.21;0
-7.31;-11.03;-11.6;16.43;75.7;-49.46;0
-8.29;-10.57;-10.19;10.37;62.13;-38.11;0
-9.17;-10.63;-7.79;8.91;39.46;-23.11;0
-10.12;-10.47;-6.1;22.91;15.11;-8.5;0
-11.4;-9.4;-3.86;42.76;14.62;7.92;0
-11.55;-8.65;-1.36;70.83;24.92;28.64;0
-10.68;-8.83;-1.37;108.78;17.41;48;0
-9.4;-9.15;-3.52;141.77;8.44;72.5;0
-9.06;-11.14;-7.52;156.09;-0.58;99.72;0
-8.78;-13.49;-12.96;155.6;-24.79;130.18;0
-8.32;-14.39;-14.06;141.12;-92.13;158.8;0
-6.61;-16.02;-15.05;104.73;-141.69;193.99;0
-4.49;-19.55;-17.48;62.27;-183.35;200.31;0
1.3;-19.55;-18.63;17.58;-230.09;181.7;0
3.26;-19.38;-17.76;5.38;-185.38;154.99;0
-1.73;-17.57;-8.85;47.44;-80.4;161.13;0
-0.81;-19.34;-8.24;112.49;-72.4;170.05;0
2.36;-18.51;-11.52;121.92;-77.91;164.25;0
5.24;-17.14;-13.59;109.18;-79.75;168.97;0
10.44;-17.58;-15.38;100.69;-30.78;152.96;0
9.94;-11.04;-14.19;94.14;-12.45;115.43;0
6.68;-8.03;-13.17;77.36;-7.58;94.73;0
3.99;-6.73;-12.67;58.44;6.38;86.85;0
2.34;-6.61;-11.81;48.9;-1.1;82.92;0
1.22;-6.16;-11.17;39.78;-30.19;79.02;0
0.54;-5.35;-11.22;28.72;-68.83;75.86;0
0.63;-4.94;-11.17;16.38;-97.64;72.74;0
1.15;-4.68;-11.58;5.05;-118.67;69.01;0
2.23;-4.3;-12.28;-5.57;-129.16;60.7;0
4.47;-3.97;-13.61;-14.29;-120.42;45.54;0
7.48;-3.35;-15.1;-26.5;-96.26;25.13;0
9.84;-2.4;-15.13;-43.07;-75.07;-7.27;0
9.95;-1.19;-14.49;-64.05;-53.75;-43.72;0
8.81;-1.86;-13.97;-85.95;-10.47;-73.01;0
6.41;-3.14;-11.07;-112.03;-8.53;-97.96;0
6.99;-4.48;-7.23;-134.82;-54.59;-113.04;0
4.52;-7.28;1.32;-126.7;-138.24;-135.4;0
-1.35;-12.62;1.79;-78.34;-144.13;-146.17;0
-8.39;-15.88;-2.94;-31.59;-43.03;-144.62;0
-15.02;-17.6;-9.97;-52.11;77.22;-110.43;0
-19.7;-19.55;-9.32;-95.35;221.64;-36.62;0
-18.06;-14.42;-4.65;-93.57;254.27;35.25;0
-10.45;-8.59;-7.21;-64.18;254.27;59.81;0
-3.68;-5.29;-10.73;-54.81;254.27;69.38;0
9.34;-12.28;-14.34;-87.37;169.49;50.53;0
19.52;-19.55;-14.62;-154.44;14.4;-43.1;0
18.7;-19.55;-3.19;-149.01;-142.59;-108.6;0
1.18;-19.41;0.17;5.63;-54.78;-94.93;0
-3.01;-13.09;-9.05;97.63;-16.73;-96.84;0
-4.36;-9.89;-17.22;106.71;0.94;-79.53;0
-1.04;-5.26;-21.27;56.6;69.48;-55.94;0
5.41;-2.94;-23.93;-15.7;147.23;-57.04;0
9.65;-2.97;-23.53;-75.98;201.82;-76.67;0
10.24;-3.89;-19;-105.09;171.03;-101.58;0
5.92;-7.02;-13.89;-106.28;92.02;-120.18;0
-0.93;-10.12;-9.87;-88.86;53.62;-110.83;0
-6.45;-13.56;-7.81;-62.69;43.74;-82.57;0
-10.65;-15.12;-8.32;-34.79;46.37;-58.37;0
-11.71;-12.03;-9.74;-16.74;49.22;-48.14;0
-9.33;-7.83;-10.77;-19.5;22.7;-36.54;0
-5.58;-6.31;-12.02;-40.02;-6.18;-24.42;0
-1.71;-6.62;-12.67;-68.5;-14.78;-16.99;0
1.54;-8.54;-11.15;-88.54;-18.79;-21.5;0
4.39;-11.49;-7.88;-74.84;-26.61;-39.12;0
5.17;-12.67;-7.71;-33.77;-10.62;-60.74;0
3.07;-10.68;-10.56;-17.65;12.8;-69.04;0
1.41;-9.29;-12.01;-20.27;24.61;-68.8;0
0.33;-9.19;-12.24;-28.59;33.99;-70.22;0
-0.53;-9.85;-10.69;-28.82;42.03;-69.32;0
-0.74;-10.37;-10.08;-19.31;48.52;-70.69;0
-1.6;-10.06;-11.2;-16.85;51.56;-73.56;0
-3.29;-9.91;-11.52;-21.03;54.35;-71.68;0
-5.17;-10.24;-10.03;-19.32;59.46;-65.56;0
-6.17;-10.42;-8.88;-8.1;66.88;-57.82;0
-6.69;-10.34;-8.73;4.53;57.86;-51.81;0
-5.78;-10.62;-9.12;11.51;42.53;-42.64;0
-5.11;-10.98;-8.99;15.15;25.8;-35.76;0
-4.89;-10.84;-7.84;21.26;23.48;-28.88;0
-5.72;-10.17;-6.63;33.07;24.07;-20.77;0
-7.48;-9.08;-6.48;49.4;10.93;-6.6;0
-9.66;-8.51;-7.07;63.76;-0.36;17.21;0
-9.54;-8.53;-6.85;84.07;-2.76;39.85;0
-10.56;-9.87;-5.55;109.05;-2.84;73.9;0
-8.8;-11.52;-6.5;129.95;1.99;101.9;0
-7.57;-14.21;-10.24;136.75;2.74;130.68;0
-6.76;-15.65;-13.81;123.18;-20.24;153.08;0
-3.77;-15.65;-14.53;86.14;-37.48;176.96;0
-1.05;-17.71;-15.03;48.99;-75.01;192.25;0
1.77;-19.55;-15.04;25.85;-137.2;181.35;0
2.89;-19.55;-14.13;37.24;-150.17;159.32;0
0.96;-17.81;-9.69;77.37;-132.22;158.49;0
0.53;-16.81;-8.24;107.31;-113.45;166.67;0
1.57;-16.73;-9.24;112.05;-90.17;170.17;0
4.14;-16.96;-11.03;108.89;-65.36;171.51;0
9.81;-16.78;-13.86;107.62;-17.26;146.34;0
8.77;-12.11;-14.22;99.81;0.48;114.54;0
5.69;-8.7;-14.57;81.43;11.73;100.99;0
2.79;-7.34;-13.92;65.85;20.34;99.33;0
0.88;-6.54;-12.5;56.48;8.89;101.79;0
-0.05;-6.52;-11.95;47.82;-22.75;100.29;0
-0.15;-6.12;-11.32;36.36;-56.58;99.68;0
0.15;-5.59;-11.06;23.89;-91.59;96.45;0
1.3;-5.87;-11.37;12.6;-117.42;88.08;0
2.39;-5.91;-11.64;1.48;-140;74.28;0
4.03;-5.67;-12.71;-4.93;-152.59;54.56;0
4.93;-4.92;-13.31;-11.85;-154.7;35.05;0
6.37;-3.56;-13.99;-20.3;-145.26;16.06;0
8.28;-2.17;-13.92;-33.82;-122.52;-6.98;0
9.77;-0.94;-12.87;-53.54;-82.12;-33.68;0
9.7;-2.07;-12.28;-74.7;-23.78;-62.18;0
7.77;-3.57;-9.28;-90.04;10.31;-82.8;0
9.01;-5.42;-4.99;-104.81;2.51;-99.94;0
2.33;-8.41;1.46;-97.25;-50.61;-119.63;0
-5.34;-11.81;1.77;-73.36;-90.95;-136.06;0
-12.23;-15.82;-3.57;-59.99;-5.73;-132.87;0
-19.7;-19.55;-7.19;-92.89;87.32;-92.89;0
-19.7;-19.55;-3.35;-91.85;205.78;5.94;0
-13.74;-13.24;-5.38;-43.94;254.27;51.82;0
-7.44;-5.09;-10.67;-18.41;254.27;80.74;0
4.23;-4.7;-15.63;-45.63;253.32;92.01;0
19.52;-19.55;-20.94;-137.04;146.64;9.02;0
19.52;-19.55;-10.03;-188.34;-105.65;-104.65;0
4.54;-19.55;6.34;-66.02;-92.31;-140.89;0
-4.13;-17.97;-3.14;71.02;-49.41;-125.53;0
-5.9;-12.79;-13.09;106.37;-87.19;-103.27;0
-3.73;-6.9;-19.51;79.17;-26.5;-63.21;0
2.18;-4;-21.18;14.77;80.29;-48.33;0
8.37;-2.26;-23.02;-58.09;166.61;-57.59;0
12.22;-1.93;-20.12;-109.97;185.58;-88.24;0
11.22;-3.25;-14.93;-118.26;145.73;-119.08;0
5.45;-7.6;-10.63;-91.46;111.35;-128.35;0
0.24;-10.97;-10.4;-61.05;105.13;-116.26;0
-4.9;-13.94;-11.48;-44.91;84.12;-98.32;0
-9.5;-16.77;-12.27;-39.78;56.16;-76.72;0
-11.84;-14.11;-11.28;-37.06;43.37;-62.44;0
-10.14;-8.95;-10.76;-40.43;43.8;-43.79;0
-5.64;-6.53;-11.35;-55.38;35.55;-31.11;0
-2.11;-6.81;-11.19;-78.19;16.01;-24.62;0
0.38;-9.39;-9.45;-90.1;-4.91;-29.09;0
3.19;-11.71;-7.77;-74.74;-6.72;-38.94;0
4.1;-12.12;-7.91;-43.38;3.81;-53.99;0
3.46;-10.93;-10.62;-21.79;23.29;-69.33;0
1.86;-9.84;-12.94;-17.19;40.43;-73.53;0
0.53;-9.97;-14.08;-19.9;53.12;-75.74;0
-1.22;-10.44;-12.9;-28.83;66.72;-73.93;0
-2.83;-11.04;-10.75;-37.22;72.33;-71.2;0
-4.24;-11.58;-8.93;-33.43;75.45;-68.4;0
-6.26;-11.17;-8.53;-21.5;91.34;-62.97;0
-8.07;-10.52;-8.49;-6.06;101.28;-52.9;0
-8.62;-9.95;-9.07;8.54;87.22;-40.37;0
-7.81;-10.1;-9.05;13.92;58.03;-28.66;0
-6.76;-11.14;-7.97;16.54;29.7;-17.95;0
-6.23;-11.5;-7.07;31.95;14.02;-12.04;0
-7.31;-10.09;-6.08;53.6;17.48;-5.37;0
-9.19;-8.13;-4.75;73.01;26.49;11.25;0
-10.53;-6.61;-4.31;92.37;30.34;36.76;0
-10.57;-6.86;-4.35;111.69;14.52;65.08;0
-10.64;-9.05;-4.85;132.34;-14.07;98.99;0
-9.72;-12.63;-9.85;144.66;-26.55;127.12;0
-8.62;-14.61;-13.3;138.23;-47.73;151.22;0
-6.67;-15.06;-14.73;117.6;-99.22;174.96;0
-4.42;-17.18;-16.16;87.78;-146.5;192.86;0
-1.3;-19.55;-16.59;47.18;-202.08;196.43;0
2.94;-19.55;-16.91;16.51;-226.7;180.69;0
3.49;-18.87;-14.09;19.78;-168.09;167.79;0
1.15;-19.06;-6.08;64.63;-111.84;185.37;0
3.51;-19.55;-8.27;117.1;-75.6;192.02;0
6.38;-18.64;-10.96;137.01;-55.9;186;0
11.55;-19.55;-14.65;132.46;3.19;160.8;0
10.18;-12.77;-15.51;112.56;10.19;123.79;0
5.8;-9.12;-14.97;81.85;15.48;108.83;0
2.25;-7.47;-13.69;55.11;21.85;111.3;0
0.53;-7.15;-11.83;43.7;3.9;116.27;0
0.54;-7.14;-11.19;35.86;-24.04;113.96;0
0.46;-6.45;-10.93;27.35;-57.92;110.21;0
1.04;-6.08;-11.07;18.62;-89.44;105.3;0
2.24;-5.77;-11.36;9.12;-118.12;98.64;0
3.51;-5.52;-11.9;-2.26;-143.17;83.11;0
4.85;-5.18;-12.39;-11.82;-154.42;62.78;0
6.09;-4.49;-12.88;-19.89;-154.7;37.91;0
6.19;-3.23;-13.09;-28.28;-147.09;14.2;0
6.87;-1.93;-12.9;-37.51;-134.63;-8.87;0
7.8;-0.96;-12.48;-51.11;-100.37;-33.36;0
8.85;-1.15;-12.87;-73.7;-48.04;-56.79;0
6.95;-1.87;-11.77;-99.82;-0.1;-70.34;0
8.96;-3.45;-9.15;-126.59;19.97;-90.95;0
4.45;-5.74;-3.02;-131.82;-15.76;-112.71;0
-2.4;-10.16;-0.73;-106.93;-48.91;-126.72;0
-8.31;-14.31;-2.04;-92.51;-24.64;-140.15;0
-17.98;-19.55;-2.93;-101.9;65.7;-117.2;0
-19.7;-19.55;3.04;-76.58;198.41;-25.16;0
-19.2;-19.55;-0.25;-11.12;247.29;56.73;0
-11.43;-6.72;-10.24;22.86;254.27;97.19;0
-0.83;0.22;-16.35;7.44;246.57;120.17;0
19.52;-5.45;-20.97;-89.86;174.22;79.84;0
19.52;-19.55;-15.52;-209.85;-80.17;-69.6;0
19.52;-19.55;-0.17;-178.11;-185.07;-188.35;0
-1.58;-19.55;0.94;12.66;-20.97;-164.73;0
-9.96;-19.54;-7.71;105.02;-37.99;-133.91;0
-9.94;-12.06;-17.33;124.21;-32.57;-77.24;0
-5.56;-4.4;-21.19;83.35;68.38;-23.03;0
5.4;-1.61;-24.7;-2.05;159.04;-4.82;0
12.29;0.35;-24.53;-93.05;215.14;-32.74;0
14.18;-1.36;-18.51;-148.47;189.48;-79.79;0
9.78;-6.17;-11.42;-138.68;131.78;-117.29;0
2.73;-8.93;-7.76;-92.32;100.94;-127.2;0
-2.8;-12.54;-7.89;-51.81;82.93;-121.46;0
-8.12;-15.94;-10.13;-35.18;58.23;-105.26;0
-11.24;-16.45;-12.36;-30.27;30.87;-90.84;0
-11.69;-10.66;-11.47;-29.34;12.32;-75.02;0
-8.86;-6.84;-11.08;-35.75;-5.71;-50.08;0
-4.27;-6.04;-11.92;-56.04;-21.55;-38.09;0
-1.04;-7.18;-11.67;-81.96;-31.35;-32.32;0
1.31;-9.27;-10.42;-92.75;-33.72;-33.45;0
2.45;-11.34;-9.78;-80.03;-22.46;-38.37;0
3.56;-11.57;-10.27;-58.42;3.99;-48.38;0
3.9;-10.47;-10.41;-42.17;31.48;-57.63;0
3.21;-10.75;-11.12;-33.72;52.84;-64.29;0
2.57;-11.06;-11.2;-31.4;64.96;-69.79;0
1.21;-10.92;-11.05;-25.74;77.68;-73.98;0
-1.62;-10.39;-10.89;-19.28;93.36;-74.46;0
-4.68;-10.34;-10.77;-15.45;100.66;-72.01;0
-7.46;-10.68;-10.74;-12.91;103.59;-67.11;0
-9.61;-10.67;-10.67;-4.7;92.68;-59.67;0
-9.21;-10.26;-10.38;3.79;74.82;-47.94;0
-8.19;-10.78;-9.61;4.79;45.62;-38.45;0
-7.16;-11.62;-8.44;10.87;22.54;-28.59;0
-6.77;-11.59;-7.57;30.11;15.21;-20.15;0
-7.74;-10.45;-6.77;54.99;25.25;-8.44;0
-9.63;-8.34;-5.51;77.18;36.51;12.07;0
-11.27;-6.9;-5.38;91.54;37.96;40.21;0
-12.23;-7.74;-5.41;104.19;19.41;71.74;0
-12;-10.14;-5.26;124.5;-3.15;109.88;0
-10.57;-13.57;-9.07;141.92;-8.59;138.93;0
-8.71;-14.3;-12.93;136.14;-17.05;157.9;0
-5.89;-13.97;-13.61;109.98;-61.62;181.8;0
-3.33;-16.71;-15.73;83.21;-123.75;202.22;0
-0.03;-19.55;-16.16;44.28;-178.73;197.17;0
4.7;-19.55;-16.36;12.09;-194.31;173.63;0
3.76;-19.55;-10.02;36.56;-144.75;162.72;0
1.69;-18.03;-7.87;108.97;-114.33;172.36;0
2.91;-17.59;-10.05;135.34;-93.36;168.17;0
4.67;-17.07;-12.23;125.79;-74.57;172.69;0
8.75;-18.26;-14.3;110.2;-20.59;170.26;0
9.69;-13.54;-14.62;100.08;11.32;129.5;0
6.42;-9.18;-13.98;80.2;17.86;106.86;0
2.71;-7.3;-13.44;60.82;19.84;99.57;0
1.14;-6.77;-12.36;50.89;16.19;106.47;0
0.37;-6.49;-11.63;42.14;-18.26;104.73;0
-0.11;-6.31;-11.47;30.55;-64.27;101.45;0
0.08;-5.9;-11.14;21.11;-100.28;103.7;0
1.15;-6;-11.08;10.34;-127.22;100.06;0
2.46;-5.82;-11.6;-0.15;-146.9;90.89;0
3.99;-6.16;-12.69;-8.9;-158.51;73.25;0
5.71;-5.73;-13.5;-16.1;-157.54;49.29;0
6.3;-4.35;-13.96;-23.73;-148.36;29.92;0
8.09;-2.81;-13.98;-32.94;-130.74;4.34;0
8.86;-1.51;-13.48;-49.71;-96.73;-23.53;0
10.13;-1.57;-13.47;-73.66;-37.07;-48.62;0
9.68;-1.83;-11.37;-100.67;10.37;-77.5;0
9.19;-3.61;-6.97;-128.46;4.48;-96.02;0
5.73;-5.67;-0.75;-136.13;-59.07;-127.24;0
-2.88;-9.9;1.37;-102.45;-98.37;-147.09;0
-9.3;-14.28;-1.76;-61.53;-36.79;-147.89;0
-15.69;-17.17;-6.51;-81.73;70.58;-122.9;0
-19.7;-19.55;-4.95;-111.53;205.63;-45.46;0
-17.89;-19.55;-3.22;-70.15;254.27;28.06;0
-12.08;-9.76;-9.17;-24.43;254.27;72.25;0
-4.16;-2.32;-13.53;-28.26;254.27;98.49;0
11.58;-7.56;-17.03;-91.1;147.29;83;0
19.52;-19.55;-15.21;-191.13;-84.42;-31.67;0
16.69;-19.55;4.53;-139.84;-169.11;-139.87;0
-2.49;-19.55;-0.31;44.76;10.15;-129.23;0
-7.07;-14.05;-11.06;98.81;-17.23;-94.21;0
-4.36;-7.58;-17.41;90.52;-43.12;-45.46;0
3.51;-4.78;-20.7;38.94;7.72;-25.89;0
11;-3.54;-22.09;-28.34;85.24;-46.72;0
15.24;-2.25;-20.98;-83.31;134.72;-86.57;0
12.53;-3.84;-17.78;-97.85;149.63;-128.27;0
5.01;-6.48;-14.47;-73.84;146.57;-136.35;0
-0.85;-9.27;-13.56;-44.66;131.36;-127.98;0
-5.57;-12.73;-14.33;-36.77;92.96;-116.01;0
-9.75;-14.8;-14.47;-49.69;46.12;-97.07;0
-12;-13.48;-13.22;-67.52;13.61;-77.11;0
-10.67;-10.06;-10.85;-85.24;8.64;-53.07;0
-6.26;-7.8;-8.89;-95.64;-10.16;-34.17;0
-2.45;-8.26;-7.14;-92.55;-28.72;-30;0
-1.24;-10.04;-6.48;-67.38;-34.15;-33.67;0
0.08;-10.96;-8.77;-43.91;-19.55;-41.67;0
1.06;-10.54;-10.78;-30.6;-6.47;-46.82;0
2.3;-9.31;-12.48;-28.93;7.35;-52.73;0
3.14;-8.62;-12.94;-36.55;18.12;-59.66;0
3.65;-9.66;-12.54;-44.95;17.9;-66.7;0
3.37;-11.11;-10.92;-41.09;16.71;-76.14;0
0.36;-11.95;-8.94;-26.96;40.89;-78.12;0
-2.69;-11.09;-8.68;-19.78;65.82;-74.14;0
-5.24;-10.07;-9.29;-21.11;63.46;-66.87;0
-7.07;-9.96;-9.78;-18.73;67.92;-59.39;0
-8.19;-10.43;-9.89;-1.02;85.58;-53.26;0
-7.96;-10.77;-10;16.14;86.03;-43.65;0
-7.04;-11.33;-9.54;17.27;63.87;-30.66;0
-6.14;-11.59;-9.04;17.67;36.53;-20.92;0
-7.88;-10.49;-7.35;28.57;21.87;-12.17;0
-10.08;-8.74;-4.82;46.3;21.61;6.3;0
-11.4;-7.18;-3.71;69.42;27.25;35.41;0
-10.34;-7.09;-4.11;96.65;18.27;65.07;0
-10.2;-9.03;-4.64;121.51;5.58;103.13;0
-8.61;-11.66;-7;136.01;10.16;132.48;0
-7.76;-14.14;-12.12;140.63;10.33;157.54;0
-6.52;-15.47;-14.74;129.08;-34.14;171.7;0
-4.73;-16.41;-14.8;92.01;-93.54;189.05;0
-2.49;-19.55;-15.55;43.36;-153.84;196.12;0
1.84;-19.55;-16.34;7.66;-197.86;181.63;0
1.95;-19.55;-13.75;19.14;-173.68;164.33;0
-0.1;-19.55;-6.88;88.84;-126.92;174.99;0
1.78;-19.55;-9;132.98;-97;171.87;0
3.64;-18.35;-10.91;128.79;-93.13;173.19;0
9.21;-19.55;-13.74;114.11;-40.19;167.71;0
11.02;-13.92;-13.45;105.77;3.18;138.24;0
8.92;-9.79;-13.39;93.32;14.26;118.93;0
5.48;-8.13;-13.11;79.69;31.49;106.94;0
2.8;-6.95;-12.33;70.87;32.06;105.56;0
1.35;-5.95;-11.5;62.6;7.67;101.02;0
0.66;-5.58;-11.29;53.95;-27.06;92.31;0
0.28;-4.88;-11.16;42.93;-63.37;84.18;0
0.17;-4.43;-11.15;30.36;-102.97;74.27;0
0.58;-3.91;-11.44;18.96;-128.22;65.23;0
2.07;-3.93;-11.91;8.9;-134.7;52.64;0
3;-3.35;-12.82;0.32;-131.53;36.61;0
4.26;-2.69;-14.36;-7.42;-119.55;23.39;0
6.39;-1.02;-14.77;-22.39;-97;3.87;0
8.49;0.54;-14.74;-45.51;-64.6;-18.27;0
10.32;-0.18;-14.74;-74.96;-10.68;-43.77;0
9.21;-1.57;-13.53;-105.86;24.22;-74.59;0
8.79;-3.92;-10.95;-139.77;1.83;-97.72;0
5.14;-5.64;-1.53;-155.89;-90.39;-126.26;0
-2.08;-11.74;2.94;-120.89;-144.8;-149.25;0
-7.29;-16.3;-0.35;-68.41;-81.01;-168.14;0
-15;-19.16;-8.57;-66.64;26.52;-157.46;0
-19.7;-19.55;-8.49;-102;145.97;-93.36;0
-19.7;-19.55;-1.51;-89.23;253.36;14.58;0
-13.5;-11.88;-5.18;-48.21;254.27;80.9;0
-4.11;-8.65;-9.74;-29.63;185.45;108.02;0
9.9;-17.4;-15.64;-61.48;73.99;82.77;0
19.52;-19.55;-16.51;-118.55;-51.78;4.91;0
19.04;-19.55;-4.84;-115.26;-137.87;-65.92;0
3.23;-16.31;-1.94;1.88;-22.22;-83.08;0
-0.41;-10.71;-9.74;74.47;44.37;-66.91;0
1.89;-6.91;-16.26;76.44;66.7;-59.56;0
4.91;-3.3;-19.51;36.84;93.54;-63.53;0
7.29;-1.55;-21.95;-13.03;127.44;-83.14;0
7.72;-2.56;-22.34;-53.58;166.19;-101.32;0
6.08;-4.74;-19.87;-75.99;163.81;-118.1;0
2.52;-8.29;-16.86;-84.39;118.45;-125.61;0
-2.05;-12.85;-14.8;-90.41;73.93;-114.99;0
-6.11;-15.34;-12.58;-99.29;34.25;-93.82;0
-8.19;-15.42;-9.18;-97.14;19.96;-77.01;0
-7.85;-11.91;-6.24;-75.66;16.16;-72.98;0
-6.05;-8.74;-5.35;-50.6;-4.12;-68.88;0
-4.82;-7.11;-6.97;-34.72;-20.35;-59.17;0
-2.85;-6.49;-9.27;-31.94;-20.08;-46.4;0
-1.2;-7.38;-11.27;-37.84;-21.22;-41.14;0
0.21;-9.11;-12.5;-47.59;-17.18;-42.59;0
1.73;-10.26;-12.59;-56.5;-8.81;-49.5;0
2.58;-10.2;-11.77;-55.05;4.72;-55.53;0
1.95;-10.1;-10.55;-47.09;20.74;-57.98;0
1.46;-10.38;-9.14;-37.38;37.44;-59.67;0
1;-10.54;-8.99;-27.67;50.41;-63.98;0
-0.4;-10.44;-10.36;-23.37;53.91;-66.83;0
-2.81;-11.03;-10.85;-24.2;58.34;-67.92;0
-5.62;-11.34;-10.1;-20.03;74.03;-67.05;0
-8.09;-11.33;-9.57;-1.95;97.52;-62.4;0
-9.52;-10.96;-9.7;17.07;96.14;-51.21;0
-10.35;-11.08;-9.44;20.5;67.35;-35.08;0
-10.96;-11.66;-7.79;20.36;43.44;-16.21;0
-11.6;-10.52;-5.24;32.56;30.09;3.69;0
-12.01;-8.49;-3.29;50.47;23.87;24.99;0
-12.66;-7.3;-2.8;68.7;12.09;50.24;0
-11.46;-7.88;-2.25;97.79;-7.33;82.18;0
-9.21;-9.94;-2.39;134.8;-9.42;106.94;0
-8.53;-12.68;-7.3;154.92;0.55;132.37;0
-7.41;-15.14;-13.69;154.64;-19.77;158.96;0
-6.27;-16.74;-15.92;138.91;-103.84;181.12;0
-4.43;-19.53;-17.12;102.48;-157.38;201.67;0
-1.48;-19.55;-18.34;47.29;-198.35;193.34;0
2.58;-19.55;-19.12;12.2;-198.56;173.16;0
0.78;-17.89;-13.69;26.4;-154.01;162.72;0
-2.03;-19.55;-4.45;100.91;-109.7;182.96;0
3.28;-19.55;-9.22;146.42;-87.97;182.88;0
8.73;-19.55;-12.53;146.14;-56.81;170.96;0
11.93;-17.84;-14.6;142.51;-12.61;140.05;0
11.39;-10.61;-14.81;128.07;7.42;115.47;0
7.26;-7.36;-15.01;100.69;4.16;101.73;0
4.29;-6.4;-13.74;77.16;15.9;103.61;0
2.6;-5.85;-11.79;66.53;9.51;101.38;0
2.19;-4.99;-11.4;62.97;-16.33;90.94;0
1.27;-4.48;-11.35;55.34;-47.33;80.67;0
0.78;-3.55;-11.39;43.53;-76.15;79.47;0
1.3;-3.36;-11.65;29;-92.14;79.52;0
3.15;-3.08;-12.21;12.3;-92.96;74.28;0
5.14;-2.8;-13.22;-4.71;-80.88;58.71;0
7.1;-1.79;-14.2;-22.37;-57.57;35.54;0
8.51;-1.22;-14.88;-45.94;-40.63;5.59;0
8.36;-0.15;-13.56;-70.68;-33.07;-29.36;0
7.09;-1.05;-12.41;-94.86;-25.03;-57.17;0
6.06;-1.69;-10.63;-116.24;-26.2;-80.37;0
6.36;-3.19;-7.69;-132.32;-51.57;-101.2;0
3.63;-5.51;0.31;-120.88;-117.89;-129.25;0
-1.93;-9.94;0.13;-88.5;-132.49;-153.24;0
-7.2;-14.06;-3.81;-68.31;-71.43;-170.56;0
-14.57;-18.54;-9.88;-102.32;30.13;-150.42;0
-19.7;-19.55;-7.01;-144.02;172.2;-77.24;0
-18.79;-19.55;0.45;-99.94;226.4;0.24;0
-13.42;-11.82;-3.44;-36.71;226.19;44.57;0
-6.39;-4.94;-9.91;-19.86;227.85;79.79;0
3.64;-5.7;-14.39;-45.16;217.05;89.21;0
19.13;-19.55;-20.08;-131.87;144.86;12.22;0
19.52;-19.55;-10.94;-200.53;-76.92;-78.03;0
7.09;-19.55;5.51;-117.66;-124.27;-105.49;0
-4.49;-16.16;-0.86;60.69;-53.51;-81.78;0
-5.91;-11.69;-11.45;123.86;-14.33;-77.05;0
-3.58;-7.16;-17.97;104.11;48.32;-57.78;0
1.11;-2.56;-21.54;37.25;116.02;-50.5;0
5.65;-1.01;-22.02;-41.87;155.22;-66.68;0
7.28;-1.47;-21.22;-102.67;166.51;-88.63;0
6.72;-3.48;-16.04;-120.21;118.03;-106.68;0
2.9;-8.27;-11.44;-98.53;46.62;-110.96;0
-0.63;-12.02;-10.61;-61.32;10.03;-99.08;0
-3.25;-14.34;-11.87;-36.38;-5.52;-82.67;0
-5.8;-14.9;-12.5;-30.07;-5.03;-72.66;0
-6.76;-13;-11.58;-36.59;8.74;-72.57;0
-6.15;-9.29;-10.05;-48.31;-1.05;-70.27;0
-4.47;-6.7;-9.94;-68.63;-20.07;-56.53;0
-2.81;-6.44;-9.59;-90.87;-25.65;-40.45;0
-0.29;-8.18;-8.09;-96.45;-27.88;-33.18;0
2.83;-10.74;-6.84;-71.76;-15.98;-42.93;0
3.03;-11.37;-8.22;-41.29;11.8;-58.81;0
2.51;-10.47;-10.58;-26.28;25.29;-66.65;0
2.17;-9.46;-12.31;-23.33;31.95;-71.53;0
0.2;-9.26;-12.61;-26.34;42.81;-75.4;0
-2.51;-9.68;-11.39;-28.22;52.66;-73.55;0
-4.27;-9.76;-9.02;-32.26;58.93;-69.95;0
-5.52;-10.62;-7.94;-29.95;71.84;-63.59;0
-7.32;-11.74;-9.48;-9.53;93.83;-56.01;0
-8.84;-11.31;-11.09;12.02;90.01;-46.38;0
-9.3;-9.99;-10.64;11.66;67.92;-31.3;0
-9;-10.2;-8.04;2.63;47.35;-12.84;0
-9.02;-10.8;-5.62;16.98;20.72;3.12;0
-10.02;-10.11;-4.52;45.49;7.14;16.18;0
-10.51;-8.39;-2.26;73.22;13.03;39.72;0
-8.98;-7.79;-0.38;104.66;22.11;63.5;0
-7.31;-8.88;-1.8;134.66;22.7;86.75;0
-6.7;-11.64;-6.38;153.61;6.31;114.31;0
-5.57;-13.78;-13.03;150.22;-5.77;143.78;0
-5.64;-15.46;-15.23;128.07;-35.71;170.63;0
-4.04;-18.09;-17.42;103.36;-86.42;196.17;0
-1.35;-19.55;-18.2;68.85;-155.07;182.45;0
3.46;-19.55;-18.82;28.92;-159.78;148.19;0
1.15;-17.79;-13.92;25.71;-104.35;131.88;0
-4.64;-17.9;-4.87;86.79;-55.49;166;0
-0.54;-19.4;-9.11;131.35;-58.65;180.67;0
3.05;-18.95;-11.73;131.7;-65.19;181.57;0
8.62;-19.55;-14.84;120.21;-20.21;175.71;0
9.78;-14.67;-14.74;107.76;4.3;137.41;0
7.72;-9.58;-14.15;87.23;11.48;116.84;0
4.45;-7.46;-13.06;64.99;14.94;105.87;0
2.97;-6.9;-11.31;55.6;23.54;107.74;0
2.15;-6.02;-10.75;48.92;3.71;102.49;0
1.62;-5.98;-11.04;40.64;-18.75;88.99;0
0.19;-4.79;-11.12;29.35;-54.91;81.07;0
0.28;-4.29;-11.28;18.1;-91.84;76.82;0
1.79;-4.23;-11.59;4.54;-114.93;71.38;0
3.32;-4.3;-12.04;-9.02;-127.88;57.76;0
4.97;-3.72;-12.7;-18.84;-124.83;39;0
6.43;-3.09;-13.4;-26.8;-112.75;15.16;0
6.78;-2.03;-13.46;-38.53;-97.07;-6.12;0
7.04;-0.72;-12.9;-55.19;-74.07;-30.63;0
7.74;-0.99;-12.85;-76.57;-34.46;-55.35;0
7.26;-2.04;-12.02;-98.63;-4.43;-81.8;0
7.99;-4.02;-9.26;-119.16;-7.1;-104.35;0
5.21;-6.92;-1.51;-121.47;-61.96;-128.56;0
-1.83;-11.63;1.26;-87.55;-96.45;-149.82;0
-8.25;-15.28;-4.03;-54.92;-71.77;-161.92;0
-15.26;-18.32;-11.81;-78.63;27.66;-150.78;0
-19.7;-19.55;-9.55;-125.69;160.27;-84.68;0
-19.27;-19.29;-1.1;-104.59;254.27;13.08;0
-14;-11.78;-4.99;-43.23;254.27;72.75;0
-5.97;-7.45;-8.48;-29.5;148.45;104.75;0
7.9;-16.44;-14.91;-85.14;25.09;85.25;0
19.08;-19.55;-15.59;-150.28;-60.21;19.89;0
19.52;-19.55;-3.4;-122.74;-103.13;-69.5;0
6.02;-15.84;-2.3;20.56;12.54;-84.33;0
2.22;-9.16;-10.38;93.82;49.96;-83.94;0
3.02;-6.79;-16.64;88.59;67.56;-85.9;0
4.1;-3.36;-19.77;47.82;91.47;-96.75;0
2.44;-1.54;-20.14;-2.23;120.34;-102.56;0
5.74;-1.94;-21.5;-47.31;147.71;-124.09;0
3.91;-4.75;-19.37;-74.55;130.4;-131.63;0
0.47;-7.75;-16.39;-80.8;90.03;-128.02;0
-2.75;-12.4;-14.42;-79.04;60.83;-113.07;0
-5.74;-14;-12.73;-80.47;40.18;-88.36;0
-7.67;-13.98;-10.25;-81.93;21.58;-69.01;0
-8.03;-12.49;-7.33;-73.57;8.66;-58.18;0
-7.34;-10.13;-6.15;-57.88;-8.1;-48.43;0
-5.06;-8.07;-7.35;-45.33;-11.71;-43.59;0
-3.19;-7.39;-8.93;-43.82;-3.17;-33.03;0
-0.99;-7.92;-10.21;-50.6;-7.24;-24.9;0
1.5;-9.14;-11.09;-51.95;-14.48;-28.19;0
3.8;-10.37;-11.31;-47.85;-17.36;-38.76;0
4.97;-10.45;-11.32;-36.56;-10.32;-55.33;0
4.23;-10.09;-11.67;-24.22;8.73;-67.43;0
2.29;-9.95;-11.97;-19.96;28.03;-75.26;0
0.61;-10.36;-11.65;-19.99;40.52;-77.65;0
-1.28;-10.51;-10.36;-21.59;46.55;-78.92;0
-3.37;-10.17;-8.93;-22.66;55.83;-76.81;0
-5.67;-9.9;-8.87;-21.95;63.74;-70.9;0
-7.29;-10.11;-9.25;-19.46;71.34;-61.09;0
-8.5;-10.93;-9.74;-2.82;82.21;-50.23;0
-9.14;-11.15;-9.94;16.87;69.59;-41.37;0
-8.8;-10.71;-9.11;17.82;43.68;-31.2;0
-8.8;-10.92;-7.01;13.05;23.13;-17.28;0
-9.29;-11.11;-5.13;27.24;12.77;-0.63;0
-10.5;-9.74;-4.8;57.68;13.78;18.83;0
-11.57;-8.42;-4.55;88;13.66;43.19;0
-11.67;-7.94;-3.3;115.77;3.35;73.21;0
-10.75;-9;-3.73;133.23;-10.76;110.7;0
-9.07;-12.05;-9.11;136.94;-27.94;151.54;0
-8.68;-14.53;-13.08;124.4;-74.65;182.7;0
-5.99;-16.85;-16.11;107.62;-113.49;212.18;0
-3.2;-19.55;-17.49;74.56;-162.57;213.02;0
1.82;-19.55;-17.5;24.4;-221.57;186.11;0
4.82;-19.55;-14.88;23.89;-162.7;155.17;0
3.11;-19.55;-6.74;111.61;-103.71;173.25;0
3.95;-18.4;-8.95;153.36;-97.81;176.04;0
5.83;-18.77;-12.33;148.28;-73.13;170.42;0
9.92;-19.55;-14.34;126.44;-6.54;157.53;0
8.15;-13.14;-13.61;109.98;20.41;128.83;0
5.39;-10.25;-13.51;92.17;40.01;116.7;0
3.06;-8.66;-12.74;77.87;45.94;116.6;0
2.04;-7.21;-11.38;69.05;31.52;118.12;0
2.46;-6.83;-11.1;63.11;12.49;110.61;0
1.85;-5.75;-10.97;53.96;-12.32;100.06;0
0.66;-5.13;-11.25;43.53;-45.2;92.65;0
0.92;-4.78;-11.59;31.24;-79.34;90.84;0
2.46;-4.55;-11.63;15.46;-104.1;81.94;0
3.72;-4.29;-12.06;2.46;-122.16;63.47;0
4.63;-3.91;-12.74;-7.6;-128.95;44.41;0
5.86;-3.48;-13.64;-18.13;-127.42;20.69;0
6.95;-1.62;-14.16;-29.98;-118.16;-5.38;0
7.12;-0.23;-13.75;-46.44;-96.3;-30.78;0
7.61;0.37;-13.62;-68.63;-52.04;-53.27;0
6.61;-0.23;-13.71;-98.15;-7.59;-75.4;0
7.98;-1.6;-11.85;-134.4;13.91;-104.79;0
8.45;-4.08;-5.35;-164.82;-20.74;-138.07;0
0.04;-9.2;3.51;-136.27;-70.19;-168.62;0
-7.11;-16.54;1.17;-79.14;-36.27;-181.72;0
-15.62;-19.55;-6.6;-68.52;58.16;-173.42;0
-19.7;-19.55;-7.01;-102.73;147.09;-106.43;0
-19.7;-19.55;0.01;-71.48;245.05;39.22;0
-14.69;-12.64;-4.59;-14.06;254.27;106.37;0
-5.56;-6.24;-9.48;-2.1;188.16;137.12;0
10.88;-13.72;-15.01;-59.28;102.09;109.08;0
19.52;-19.55;-13.99;-133.86;-16.84;15;0
19.52;-19.55;-4.38;-118.67;-70.07;-82.24;0
2.29;-14.82;-5.81;12.96;13;-98.85;0
-0.31;-9.86;-13.01;73.19;8.63;-78.68;0
1.35;-7.36;-18.25;71.48;0.61;-68.74;0
4.15;-4.68;-21.43;30.08;31.87;-72.51;0
6.47;-2.64;-22.31;-29.71;74.65;-87.24;0
7.6;-3.58;-21.18;-85.13;120.34;-102.8;0
5.99;-5.76;-17.21;-114.73;131.54;-118.01;0
1.81;-9.05;-13.33;-116.99;107.3;-120.72;0
-1.74;-13.32;-11.2;-105.41;87.2;-108.38;0
-4.5;-15.57;-9.71;-92.38;74.22;-88.72;0
-6.94;-14.35;-7.39;-72.08;56.51;-80.67;0
-7.91;-11.35;-6.4;-48.53;41.33;-75.62;0
-7.35;-8.23;-7.16;-32.63;18.61;-64.39;0
-5.39;-6.27;-8.55;-28.93;20.49;-50.15;0
-3.4;-6.21;-10.34;-30.64;25.6;-38.11;0
-1.44;-7.53;-11.62;-37.59;18.86;-38.95;0
0.2;-9.41;-11.89;-45.37;11.77;-46.49;0
1.13;-10.23;-11.04;-52.02;24.81;-54.45;0
1.16;-9.79;-9.84;-46.73;31.06;-57.24;0
1.09;-9.46;-10.52;-20.38;18.01;-60.31;0
0.64;-9.17;-12.18;-5.31;24.32;-65.86;0
-0.24;-9.47;-12.81;-20.02;39.48;-68.69;0
-0.87;-11.09;-12.44;-43.92;43.57;-71.37;0
-1.71;-12.74;-10.37;-49.29;57.3;-72.82;0
-3.41;-13.48;-9.46;-25.75;81.02;-71.72;0
-6.25;-12.56;-9.93;-0.35;94.04;-69.54;0
-8.76;-11.78;-9.62;10.27;87.84;-60.45;0
-10.64;-11.52;-8.87;16.81;58.64;-45.14;0
-11.71;-10.99;-7.19;25.01;43.57;-24.95;0
-12.76;-9.44;-3.79;42.82;41.9;-3.21;0
-13.4;-7.99;-1.37;69.72;37.57;23.92;0
-12.66;-7.21;-0.77;98.75;20.8;54.22;0
-10.56;-7.52;-2.13;127.43;5.64;86.18;0
-7.79;-8.53;-6.22;142.35;-15.07;113.43;0
-6.22;-11.17;-11.41;140.02;-21.56;142.61;0
-6.76;-13.88;-13.06;125.1;-60.49;175.77;0
-5.17;-18.34;-16.1;107.12;-109.74;214.83;0
-3.54;-19.55;-16.96;70.35;-174.81;212.39;0
4.91;-19.55;-18.71;19.22;-188.8;169.17;0
3.43;-19.55;-11.01;40.63;-122.39;141.47;0
0.96;-17.52;-7.5;124.77;-77.75;159.37;0
2.11;-17.7;-10.66;149.38;-58.09;157.7;0
2.25;-16.5;-12.88;137.82;-55.11;152.55;0
2.57;-15.56;-14.08;119.63;-38.68;163.72;0
8.49;-18.35;-16.32;96.52;30.96;163.32;0
7.58;-11.88;-15.1;79.38;33.29;125.75;0
4.52;-8.7;-13.38;61.43;19.9;110.44;0
1.66;-7.53;-12.12;49.61;12.79;114.45;0
0.91;-6.43;-10.67;42.56;-8.04;115.73;0
0.76;-6.05;-10.19;35.84;-44.18;110.93;0
0.98;-6.09;-10.24;27.39;-83.29;103.75;0
1.2;-5.77;-10.43;21.01;-114.89;97.57;0
1.89;-5.28;-10.96;15.89;-140.34;90.25;0
3.53;-4.98;-12.23;9.6;-152.94;79.28;0
5.68;-4.4;-13.68;-0.13;-147.65;61.02;0
7.99;-3.39;-14.31;-13.58;-136.93;30.21;0
8.17;-2.37;-14.29;-33.41;-128.23;-6.25;0
7.6;-1.47;-13.93;-55.82;-101.75;-34.4;0
8.17;-0.44;-13.87;-77.65;-56.03;-55.66;0
7.05;-0.29;-12.83;-102.34;-29.98;-74.75;0
6.69;-1.56;-10.2;-124.21;-37.18;-92.44;0
4.93;-3.48;-4.71;-134.21;-82.38;-111.59;0
0.04;-8.24;-1.42;-126.42;-110.23;-123.35;0
-3.97;-13.21;-3.96;-116.12;-64.65;-137.04;0
-11.13;-17.63;-7.67;-124.72;42.31;-135.04;0
-19.39;-19.55;-7.87;-145.32;175.29;-78.38;0
-19.7;-19.55;1.38;-98.38;230.32;8.38;0
-14.67;-13.74;-4.03;-31.89;229.52;60.08;0
-6.81;-7.52;-11.01;-16.79;211.46;87.18;0
3.86;-9.77;-14.68;-55.18;121.32;78.67;0
15.2;-19.55;-16.74;-128.37;8.99;15.89;0
19.3;-19.55;-7.22;-158.44;-112.94;-48.11;0
7.25;-19.55;1.75;-46.1;-82.86;-74.26;0
0.4;-13.91;-4.48;54.98;-32.68;-74.36;0
-1.1;-9.45;-11.8;84.07;8.66;-61.95;0
2.14;-5.81;-16.8;62.04;56.2;-47.48;0
5.96;-4.4;-19.52;17.09;99.64;-55.24;0
8.06;-3.45;-21.42;-31.08;151.78;-77.33;0
7.81;-4.26;-20.34;-59.4;193.39;-98.63;0
5.32;-5.73;-17.2;-64.71;173.94;-113.21;0
2;-9.06;-14.78;-65.01;120.03;-115.8;0
-1.77;-13.24;-13.45;-63.34;81.8;-108.36;0
-5.43;-15;-12.45;-58.39;56.32;-94.96;0
-7.81;-13.86;-11.87;-53.08;35.87;-81.4;0
-7.83;-9.97;-11.66;-60.76;25.51;-70;0
-5.99;-6.73;-11.46;-79.5;3.54;-61.93;0
-3.67;-6.03;-9.97;-97.12;-21.55;-53.07;0
-1.48;-7.33;-6.04;-91.47;-31.59;-48.37;0
-0.72;-9.51;-5.22;-45.41;-25.3;-51.17;0
-0.8;-10.06;-9.3;-20.82;-9.53;-54.81;0
-0.52;-10.21;-11.94;-25.34;4.68;-56.14;0
0.28;-9.6;-12.65;-41.4;19.07;-54.46;0
0.71;-10.05;-11.14;-47.6;30.06;-52.68;0
1.2;-10.51;-9.67;-34.34;39.02;-54.55;0
0.63;-10.49;-9.62;-18.93;48.85;-56.96;0
-0.57;-10.38;-10.37;-15.53;57.41;-61.98;0
-3.09;-10.99;-10.41;-19.77;65.54;-66.18;0
-5.37;-11.13;-9.38;-20.08;78.33;-64.1;0
-7.07;-11.06;-8.95;-7.82;89.78;-62.14;0
-8.34;-11.11;-9.15;8.34;82.73;-56.73;0
-9.1;-11.51;-10.07;18.12;58.84;-48.01;0
-9.46;-11.68;-9.98;19.87;37.49;-38.89;0
-10.44;-11.13;-8.49;23.65;20.51;-28.85;0
-11.35;-9.45;-5.83;33.69;8.86;-12.77;0
-12.64;-7.93;-3.8;51.25;1.7;11.5;0
-13.12;-7.93;-3.07;77.72;-13.76;46.83;0
-11.32;-9.36;-2.04;102.08;-17.13;85.12;0
-9.03;-11.63;-3.92;123.07;-18.55;117.25;0
-6.52;-13.48;-9.88;134.82;-37.36;146.46;0
-6.31;-14.99;-15.16;136.04;-92.67;163.43;0
-3.99;-15.65;-17.32;123.13;-123.77;183.89;0
-2.04;-16.34;-17.94;95.23;-141.89;193.54;0
-0.07;-19.55;-16.88;47.98;-181.44;187.37;0
2.75;-19.55;-16.34;11.34;-161.37;163.95;0
0.35;-19.55;-6.97;52.92;-111.03;166.1;0
3;-19.55;-7.95;127.6;-78.05;174.76;0
3.57;-18.81;-10.05;144.39;-75.39;165.49;0
5.33;-18.02;-13.35;140.01;-51.13;172;0
8.76;-18.58;-15.75;119.96;8.49;153.57;0
7.91;-11.13;-15.29;99;15.52;130.24;0
5.44;-8.14;-14.59;71.14;24.07;118.3;0
3.55;-7.31;-13.17;48.52;31.66;113.36;0
2.32;-7;-11.71;38.9;24.1;103.66;0
1.69;-7.11;-11.62;33.98;7.62;92.71;0
1.11;-6.28;-11.15;22.9;-21.52;84.8;0
1.22;-5.34;-11.12;11.02;-62.07;78.18;0
2.06;-4.92;-11.4;-1.87;-102.13;71.02;0
3.94;-4.22;-12.08;-13.87;-132.78;57.68;0
5.55;-3.36;-12.67;-19.89;-144.49;41.11;0
6.39;-2.35;-12.78;-25.86;-147.48;19.41;0
6.97;-1.04;-12.31;-34.67;-138.53;-7.56;0
8.28;-0.29;-12.94;-50.82;-98.82;-30.88;0
8.29;0.44;-12.75;-77.59;-58.25;-60.46;0
7.54;-0.6;-11.3;-109.78;-29.33;-85.99;0
6.76;-2.89;-5.85;-131.76;-51.28;-114.51;0
0.62;-7.04;-1.34;-115.7;-83.77;-141.65;0
-4.45;-11.55;-2.26;-78.86;-63.1;-154.32;0
-10.27;-15.2;-8.34;-67.4;42.81;-148.27;0
-17.48;-19.26;-11.46;-97.82;161.4;-109.71;0
-19.7;-19.55;-7.65;-107.28;253.23;-20.72;0
-15.84;-17.5;-5.74;-71.47;254.27;46.19;0
-8.47;-12.16;-8.16;-50.8;216.61;83.38;0
3.32;-16.6;-11.18;-80.15;54.4;77.61;0
14.8;-19.55;-11.4;-122.98;-49.3;24.61;0
17.79;-19.55;-3.43;-90.67;-64.41;-38.27;0
6.32;-16.19;-3.73;17.34;4.25;-60.27;0
1.98;-9.84;-10.38;64.18;21.43;-59.98;0
1.53;-5.94;-15.29;60.51;28.48;-54.75;0
5.05;-4.02;-18.05;33.49;48.87;-60.66;0
6.99;-3.22;-20.27;-3.68;90.14;-81.46;0
7.16;-3.69;-20.96;-35.79;133.38;-99.45;0
5.61;-5.85;-20.2;-57.09;148.95;-112.46;0
3.37;-7.85;-18.24;-71.89;121.4;-114.56;0
0.61;-10.98;-16.09;-83.46;85.45;-110.72;0
-2.85;-14.67;-14.7;-93.53;60.15;-103.33;0
-6.41;-14.92;-11.92;-94.18;49.15;-93.18;0
-7.63;-12.65;-9.06;-82.65;45.45;-81.49;0
-6.78;-9.99;-7.89;-68.86;30.35;-71.33;0
-5.59;-8.42;-7.85;-60.21;5.32;-63.5;0
-3.82;-7.86;-8.11;-56.57;-1.84;-54.4;0
-2.19;-8.3;-9.02;-55.13;-0.09;-48.46;0
-0.75;-9.1;-10.27;-48.42;0.03;-50.24;0
-1.05;-9.1;-10.88;-37.58;3.81;-46.88;0
-0.08;-8.57;-12.3;-35.64;22.98;-51.53;0
-0.21;-8.57;-11.85;-37.06;33.56;-54.21;0
0.65;-9.21;-11.81;-42.22;31.22;-56.31;0
2.32;-10.46;-10.83;-40.67;15.41;-63.62;0
2.39;-10.92;-10.64;-29.58;17.38;-73.86;0
0.37;-10.76;-10.85;-24.84;32.08;-80.74;0
-2.47;-10.12;-10.8;-32.37;43.16;-80.22;0
-5.49;-9.9;-9.24;-39.61;53.43;-73.59;0
-7.8;-10.51;-7.05;-22.17;70.96;-62.3;0
-8.52;-11.54;-8.28;12.27;86.21;-48.8;0
-8.03;-11.7;-10.62;28.05;72.71;-38.02;0
-8.18;-10.96;-10.26;23.42;48.86;-28.22;0
-8.69;-9.67;-7.3;20.24;34.74;-14.89;0
-9.54;-8.31;-3.98;32.45;32.06;3.5;0
-10.74;-7.06;-2.91;60.4;31.13;29.56;0
-10.69;-7.03;-3.79;84.61;33.77;57.92;0
-10.27;-8.34;-4.2;107.27;19.73;94.61;0
-8.97;-11.31;-6.7;138.36;11.64;125.14;0
-7.91;-13.86;-12.23;154.77;-7.72;151.5;0
-8.31;-15.72;-14.25;145.8;-64.78;169.86;0
-7.76;-17.78;-15.53;113.53;-96.5;197.86;0
-4.77;-19.55;-17.06;68.37;-147.63;212.25;0
2.39;-19.55;-19.15;23.17;-187.86;195.68;0
4.24;-19.55;-16.65;20.89;-144.9;169.21;0
0.72;-19.55;-7.81;76.01;-106;171.92;0
1.73;-19.55;-8.08;125.18;-93.76;180.54;0
2.62;-19.55;-9.63;136.49;-91.37;177.83;0
8.35;-19.55;-13.82;132.43;-37.28;168.86;0
9.56;-14.04;-14.28;116.23;-8.63;131.59;0
6.62;-8.88;-14.24;90.8;-5.54;110.83;0
4.14;-6.97;-13.46;68.23;18.51;107.83;0
3.86;-6.36;-12.22;56.36;26.16;102.15;0
3.39;-5.6;-11.42;52.34;11.9;88.87;0
2.07;-4.54;-11.31;45.47;-26.91;75.32;0
1.29;-4.43;-11.67;33.53;-71.59;64.02;0
1.03;-3.94;-11.62;19.72;-115.39;56.23;0
1.43;-3.72;-11.39;8.17;-147.94;48.39;0
2.48;-4.06;-12.02;3.73;-155.2;39.03;0
3.6;-3.9;-13.1;2.55;-139.49;22.49;0
4.38;-2.75;-14.24;1.53;-106.62;9.51;0
6.19;-1.67;-14.82;-11.37;-70.14;-5.47;0
8.61;-0.97;-15.51;-37.14;-13.89;-20.95;0
10.32;-1.77;-15.95;-73.42;49.09;-46.4;0
4.91;-3.03;-10.75;-109.19;52.35;-69.11;0
7.78;-6.71;-3.17;-133.8;-18.28;-91.98;0
0.06;-11;2.47;-101.79;-103.21;-119.83;0
-6.31;-13.86;0.05;-39.77;-120.68;-136.61;0
-11.27;-14.76;-8.47;-17.6;-89.68;-140.82;0
-18.55;-15.45;-14.67;-66.25;-31.2;-113.56;0
-19.7;-16.03;-10.89;-113.2;155.87;-40.93;0
-15.13;-10.62;-4.1;-110.11;254.27;43.91;0
-5.88;-4.86;-4.48;-92.23;254.27;74.46;0
2.48;-3.1;-8;-92.6;192.67;76.36;0
15.68;-11.05;-10.61;-115.68;68.96;31.76;0
19.52;-19.55;-13.59;-134.18;-60.03;-65.48;0
16.63;-19.55;-10.58;-93.96;-70.65;-147.68;0
-0.14;-19.55;-6.76;5.09;-6.13;-133.87;0
-7.77;-13.64;-10.28;56.84;32.58;-86.27;0
-4.62;-6.68;-14.52;50.18;85.77;-57.48;0
1.92;-4.84;-16.94;13.11;121.52;-56.94;0
5.85;-2.97;-17.6;-17.34;158.03;-74.92;0
8.59;-1.76;-16.14;-37.7;135.51;-99.14;0
8.08;-1.56;-15.02;-40.7;56.74;-121.59;0
3.44;-6;-15.92;-28.85;-3.23;-125.11;0
-2.13;-9.21;-17.31;-24.8;-23.65;-104.2;0
-6.24;-11.2;-17.44;-45.57;-6.9;-76.79;0
-8.5;-12.27;-15.51;-81.05;24.74;-48.76;0
-9.93;-11.03;-10.97;-112.66;29.5;-32.06;0
-6.08;-11.2;-7.59;-129.11;21.57;-21.93;0
-0.86;-10.54;-2.85;-113.87;-6.7;-24.09;0
0.02;-11.13;-1.78;-55.86;-3.33;-28.75;0
0.91;-10.24;-6.2;-16.57;20.41;-30;0
2.63;-9.62;-10.83;-5.52;28.41;-35.42;0
4.14;-8.9;-14.04;-11.34;31.83;-45.89;0
4.33;-8.42;-15.26;-23.79;32.19;-59.02;0
2.86;-8.65;-14.89;-33.89;30.16;-71.23;0
0.45;-9.54;-13.49;-37.57;32.21;-76.57;0
-0.91;-10.48;-10.91;-30.59;36.29;-74.76;0
-1.88;-11.14;-9.4;-23.51;45.8;-77.07;0
-4.48;-10.49;-9.72;-28.8;55.38;-73.04;0
-6.65;-9.96;-9.87;-38.93;61.88;-64.26;0
-8.13;-9.92;-8.99;-31.19;70.43;-53.29;0
-8.15;-10.47;-8.82;-6.42;80.69;-43.95;0
-7.72;-11.02;-9.06;11.62;71.45;-36.2;0
-7.36;-11.61;-8.11;15.77;54.41;-25.14;0
-7.64;-11.47;-6.55;21.54;46.23;-13.18;0
-9.07;-10.23;-5;39.93;35.97;0.57;0
-11.24;-8.24;-4.64;64.85;24.59;22.6;0
-12.09;-7.35;-4.7;88.99;15.12;46.87;0
-11.84;-8.02;-3.48;115.01;2.55;83.38;0
-9.85;-10.38;-4.3;142.74;7.7;113.69;0
-8.35;-12.57;-9.02;151.89;8.24;140.02;0
-7.78;-14.6;-13.38;139.89;-45.61;160.8;0
-4.99;-15.6;-15.44;119.77;-87.4;186.27;0
-2.66;-19.34;-16.68;89.15;-122.33;205.27;0
0.98;-19.55;-16.31;41.61;-171.24;197.05;0
5.86;-19.55;-15.71;12.49;-171.54;167.85;0
2.7;-19.55;-7.92;62.8;-110.98;167.08;0
1.77;-19.37;-8.2;136.13;-84.84;174.29;0
2.85;-18.02;-10.29;148.89;-70.94;166.4;0
4.51;-17.01;-12.51;135.18;-45.05;169.75;0
8.14;-18.63;-14.64;113.32;-5.73;163.66;0
8.18;-13.14;-13.94;100.14;15.32;132.26;0
6.23;-9.42;-13.46;82.34;30.4;114.63;0
3.75;-7.85;-12.65;64.98;39.13;104.3;0
2.5;-7.23;-11.82;56.9;36.63;102.69;0
1.32;-6.37;-11.17;49.18;0.67;93.98;0
1.55;-5.93;-11.11;38.81;-29.23;89.82;0
0.98;-5.39;-10.68;26.99;-73.29;81.98;0
1.27;-4.86;-10.76;15.47;-107.42;76.6;0
2.26;-4.4;-11.14;4.25;-131.35;66.57;0
3.59;-3.84;-11.97;-4.06;-140.13;50.7;0
3.93;-2.92;-13.21;-9.92;-133.69;34.61;0
5.19;-1.7;-14.11;-18.52;-119.78;15.02;0
6.34;-0.45;-13.9;-33.93;-98.82;-7.07;0
7.88;0.25;-13.4;-56.58;-59.3;-29.05;0
8.03;-0.2;-13.37;-85.86;-16.36;-59.69;0
7.06;-1.69;-10.95;-122.63;-13.65;-86.82;0
7.7;-3.9;-3.84;-144.23;-57.79;-116.15;0
1.69;-7.8;1.82;-112.36;-105.06;-138.11;0
-3.54;-12.44;0.6;-73.17;-110.91;-154.38;0
-9.51;-15.97;-5;-65.22;-49.06;-159.85;0
-17.36;-19.55;-9.68;-108.79;78.29;-129.3;0
-19.7;-19.55;-5.86;-118.48;245.51;-33.23;0
-13.5;-15.66;-2.13;-66.82;254.27;34.44;0
-9.67;-9.07;-6.16;-27.24;254.27;72.01;0
0.35;-10.3;-10.89;-39.15;148.64;82.69;0
13.85;-19.55;-15.04;-93.04;-16.97;38.97;0
19.52;-19.55;-9.65;-123.28;-132.75;-40.14;0
7.86;-19.55;-1.61;-27.79;-44.24;-85.21;0
-0.96;-14.75;-9.01;63.27;29.71;-71.72;0
-0.56;-7.84;-15.94;82.24;30.58;-58.68;0
2.16;-3.55;-19.76;52.14;41.97;-49.46;0
6.85;-0.89;-21.42;-2.26;73.72;-61.25;0
9.95;0.58;-21.24;-54.91;110.06;-84.08;0
10.8;-0.87;-18.87;-91.2;138.4;-112.04;0
7.43;-5.45;-15.86;-98.23;129.63;-127.55;0
3.23;-9.29;-13.53;-88.48;113.7;-128.5;0
-1.83;-13.7;-12.11;-80.49;93.94;-119.16;0
-6.96;-17.43;-10.76;-78.4;60.67;-98.14;0
-10.67;-16.59;-9.28;-68.73;41.38;-78.72;0
-10.49;-11.35;-7.34;-54.44;45.07;-61.86;0
-7.47;-7.71;-6.91;-44.25;27.67;-46.13;0
-4.56;-6.82;-8.73;-40.86;13.36;-33.46;0
-1.76;-6.98;-10.61;-46.05;3.96;-28.09;0
0.4;-8.52;-11.65;-54.37;-3.44;-28.4;0
1.8;-10.61;-12.1;-56.58;0.68;-32.43;0
3.16;-11.6;-11.67;-50.42;18.15;-47.74;0
2.69;-10.96;-10.81;-39.14;37.5;-61.78;0
1.55;-10.18;-10.24;-33.21;42.61;-69.14;0
0.55;-9.75;-10.18;-28.73;38.11;-71.93;0
-0.61;-9.91;-10.11;-22.02;38.42;-73.23;0
-2.35;-10.49;-10.48;-18.22;48.33;-74.01;0
-3.49;-10.6;-10.28;-22.39;52.29;-72.23;0
-4.77;-11.09;-9.42;-25.94;56.83;-66.53;0
-5.94;-12.05;-8.96;-13.15;73.48;-63.14;0
-7.43;-12.05;-9.2;7.53;84.02;-57.42;0
-8.36;-11.28;-9.4;17.92;69.19;-46.81;0
-8.33;-11.1;-9.07;16.92;47.79;-35.45;0
-8.89;-10.93;-7.7;19.6;28.92;-24.53;0
-10.6;-9.78;-5.37;36.01;19.11;-9.01;0
-11.97;-8.01;-3.52;58.52;16.94;12.73;0
-12.37;-7.13;-2.58;85.16;8.98;38.62;0
-11.01;-7.42;-2.38;117.72;-2.05;69.58;0
-8.85;-8.68;-5.41;141.88;-6.6;98.8;0
-7.38;-10.08;-9.88;143.82;-18.86;124.63;0
-7.35;-12.42;-13.35;133.5;-68.18;149.84;0
-6.46;-14.56;-15.7;117.43;-111.91;177.66;0
-5.58;-19.48;-17.38;87.13;-144.71;197.28;0
-1.82;-19.55;-17.04;32.34;-203.88;189.72;0
3.93;-19.55;-16.49;-4.37;-187.85;164.1;0
1.36;-19.55;-4.73;57.72;-137.39;164.79;0
2.4;-19.55;-7.31;140.27;-99.68;168.08;0
3.09;-18.33;-9.54;154.76;-94.65;162.77;0
5.6;-18;-13.51;143.52;-64.02;169.75;0
10.46;-18.4;-15.97;121.36;2.41;176.69;0
10.14;-13.5;-15.38;103.32;31.51;133.22;0
6.74;-9.4;-14.54;79.14;37.89;110.65;0
2.33;-7.87;-13.33;57.39;38.7;104.61;0
0.75;-6.91;-11.7;46.18;31.94;110.81;0
0.81;-6.61;-11.07;39.97;7.8;115.15;0
1.68;-6.52;-10.9;30.4;-24.42;109.5;0
0.73;-5.72;-10.33;20.2;-74.09;104.29;0
1.19;-5.64;-10.53;12.24;-114.04;100.69;0
2.4;-5.74;-10.72;3.9;-140.95;92.47;0
3.98;-5.52;-11.63;-2.43;-152.69;75.33;0
4.82;-4.83;-12.78;-7.57;-145.39;58.09;0
6.1;-3.17;-14.03;-15.02;-127.85;35.51;0
7.19;-1.85;-14.32;-28.38;-104.18;9.79;0
8.07;-0.63;-13.58;-48.74;-72.46;-15.95;0
8.4;-0.82;-13.8;-71.84;-19.59;-45;0
6.49;-1.5;-13.67;-102.5;15.09;-75.27;0
8.03;-2.35;-11.87;-140.66;-0.5;-99.25;0
7.04;-4.76;-1.98;-159.8;-77.87;-134.53;0
-1.35;-10.11;2.42;-119.14;-112.75;-153.49;0
-5.7;-14.99;-2.23;-97.36;-40.3;-170.71;0
-15.52;-19.55;-7.07;-113.99;84.87;-158.53;0
-19.7;-19.55;-6.4;-129.91;235.09;-88.94;0
-19.7;-19.55;-0.02;-88.94;254.27;19.61;0
-13.52;-13.87;-4.78;-38.28;233.91;59.52;0
-4.98;-9.71;-9.55;-24.51;147.88;88.39;0
8.11;-15.62;-14.15;-54.91;46.15;65.89;0
19.52;-19.55;-14.99;-105.63;-43.75;-4.68;0
18.38;-19.55;-4.77;-103.68;-128.86;-78.35;0
4.13;-15;-4.82;14.45;-35.74;-96.43;0
-1.48;-9.8;-12.4;79.6;2.16;-76.63;0
0.89;-4.79;-17.97;67.85;43.75;-54.43;0
5.95;-1.63;-20.94;14.73;107.9;-49.72;0
10.15;-0.73;-22.4;-44.15;169.61;-67.69;0
10.36;-1.91;-20.16;-86.21;186.16;-96.79;0
7.53;-5.46;-16.56;-98.11;164.05;-116.31;0
2.18;-9.27;-13.6;-86.87;123.29;-123.73;0
-2.11;-12.93;-12.25;-72.54;90.36;-117.04;0
-6.95;-15.86;-11.76;-64.83;60.21;-100.93;0
-10.9;-15.23;-10.71;-60.68;42.05;-81.98;0
-11.95;-11.17;-9.08;-57.14;40.91;-60.57;0
-8.89;-7.6;-8.84;-55.59;27.41;-40.1;0
-5.26;-6.79;-9.58;-58.62;12.4;-27.37;0
-1.39;-7.26;-10.26;-63.38;4.75;-25.21;0
0.94;-8.94;-9.85;-59.91;-6.34;-33.6;0
1.32;-10.66;-10.09;-48.06;0.06;-39.2;0
2.17;-11.37;-10.73;-34.99;22.09;-49.8;0
1.83;-10.77;-11.36;-25.82;43.18;-56.86;0
0.83;-10.39;-11.7;-23.05;51.81;-58.2;0
-0.05;-10.01;-11.42;-22.1;54.84;-58.75;0
-1.22;-9.87;-10.74;-22.37;60.9;-57.97;0
-1.58;-10.14;-10.25;-20.52;62.64;-58.27;0
-2.9;-10.23;-10.18;-17.32;60.25;-58.57;0
-4.28;-10.76;-10.23;-15.86;69.82;-60.87;0
-5.82;-11.43;-10.16;-5.53;93.86;-60.91;0
-6.99;-11.55;-10.46;11.5;96.61;-58.33;0
-7.62;-11.46;-10.38;16.24;68.26;-53.66;0
-7.86;-11.9;-9.55;12.83;46.06;-46.72;0
-9.56;-11.62;-8.05;22.05;27.37;-37.08;0
-11.2;-9.84;-6.67;38.95;12.86;-20.76;0
-12.39;-7.49;-4.56;53.41;3.89;3.29;0
-12.52;-7;-3.14;73.25;-6.17;31.79;0
-10.23;-8.28;-1.84;106.95;-13.53;63.36;0
-8.39;-11.1;-2.98;147.52;-11.87;84.55;0
-8.16;-12.83;-8.78;163.04;-11.04;106.1;0
-7.48;-13.47;-14.16;151.05;-37.96;121.47;0
-5.87;-12.65;-15.29;126.27;-75.42;137.62;0
-5.2;-13.01;-15.75;94.21;-128.53;170.15;0
-3.71;-17.16;-17.06;64.61;-177.24;188.82;0
-0.28;-19.55;-17.46;24.89;-231.94;181.28;0
2.84;-19.55;-16.87;1.11;-197.57;157.79;0
-1.25;-19.55;-8.46;47.24;-103.79;156.11;0
0.41;-18.75;-8.69;126.76;-98.73;166.27;0
2;-16.86;-11.23;133.3;-111.8;169.02;0
5.51;-18.47;-14.93;116.9;-91.18;174.48;0
10.32;-19.55;-16.5;98.26;-37.23;162.34;0
8.36;-11.8;-13.58;88.03;-31.06;131.81;0
6.41;-9.34;-12.41;73.84;-15.51;117.56;0
4.64;-8.12;-11.05;66.27;-2.9;111.63;0
4.47;-7.4;-10.65;62.76;-2.07;103.21;0
3.33;-5.82;-10.58;54.24;-26.78;91.99;0
2.42;-5.24;-10.8;43.8;-45.38;83.33;0
2.22;-5.13;-11.06;29.9;-69.17;77.67;0
2.69;-4.77;-10.94;17.63;-89.88;71.6;0
3.08;-4.52;-11.35;7.01;-112.32;63.15;0
3.86;-4.26;-12.32;-2.26;-122.62;51.87;0
5.03;-3.84;-13.52;-12.53;-114.66;38.16;0
7.46;-3.05;-14.64;-25.23;-84.69;19.92;0
8.3;-1.69;-14.51;-41.66;-52.26;-9.67;0
7.6;-1.09;-13.62;-64.6;-18.55;-40.86;0
6.68;-1.36;-13.8;-89.56;20.94;-68.16;0
5.19;-2.26;-13.37;-122.66;29.1;-93.88;0
6.64;-3.09;-10.46;-153.08;-2.05;-117.47;0
4.4;-6.32;4.64;-150.52;-112.8;-150.56;0
-2.21;-13.89;5.23;-93.19;-145.59;-168.34;0
-10.66;-19.55;-0.92;-62.28;-57.74;-186.51;0
-19.7;-19.55;-7.34;-89.89;124.4;-141.56;0
-19.7;-19.55;-4.26;-81.32;254.27;18.81;0
-19.7;-16.37;-4.7;-28.19;254.27;107.79;0
-9.55;-7.12;-10.92;-5.37;254.27;142.53;0
6.13;-9.93;-15.04;-40.39;185.74;117.39;0
19.52;-19.55;-16.23;-117.78;15.83;14.99;0
19.52;-19.55;-4.26;-156.56;-197.9;-83.32;0
5.61;-17.41;1.93;-41.01;-93.01;-110.4;0
-0.69;-13.01;-5.91;61.22;-25.39;-103.44;0
-1.22;-9.56;-14.98;96.71;-1.75;-82.09;0
1.77;-5.88;-20.82;67.99;54.03;-69.55;0
5.92;-2.76;-22.52;11.55;121.38;-71.82;0
7.82;-2.27;-22.57;-44.6;169.29;-82.17;0
7.17;-4.38;-19.44;-77.08;181.81;-98.12;0
3.44;-6.54;-15.5;-83.09;154.19;-108.09;0
-0.29;-9.37;-13.46;-81.22;118.91;-107.26;0
-3.67;-12.27;-12.87;-88.24;97.84;-94.98;0
-7.08;-13.51;-11.45;-94.4;76.53;-75.32;0
-9;-13.88;-10.18;-91.57;54.25;-60.41;0
-8.17;-12.12;-9.09;-79.95;32.23;-55.47;0
-5.26;-8.84;-8.71;-67.67;8.06;-54.61;0
-2.03;-7;-8.6;-59.28;-16.6;-57.49;0
-0.93;-7.38;-8.36;-50.42;-44.17;-55.4;0
0.4;-8.21;-9.91;-45.81;-40.85;-55.98;0
1.15;-9.69;-10.51;-46.3;-29.83;-63.76;0
1.21;-10.07;-9.98;-48.89;-5.55;-64.69;0
1.48;-10.24;-10.7;-50.74;12.22;-67.81;0
0.79;-10.65;-11.02;-45.84;22.04;-65.81;0
1.65;-11.23;-11.35;-33.33;29.98;-74.24;0
0.38;-11.09;-11.42;-25.84;38.91;-76.96;0
-0.87;-11.4;-11.06;-28.12;47.82;-79.96;0
-3.13;-11.86;-9.05;-34.07;61.36;-82.73;0
-5.94;-11.82;-6.63;-24.23;76.98;-77.84;0
-8.12;-11.05;-7.1;-3.91;83.74;-66.47;0
-9.52;-10.9;-8.19;10.79;75.43;-54.15;0
-9.43;-11.29;-8.97;19.52;54.29;-39.75;0
-8.78;-11.68;-8.97;23.28;35.7;-30.46;0
-9.61;-10.83;-8.45;31.56;21.21;-21.68;0
-10.89;-8.7;-6.87;46.89;7.16;-7.31;0
-12.56;-6.43;-5.19;62.58;-0.97;16.99;0
-12.2;-5.5;-4.17;83.02;-11.05;47.64;0
-10.7;-6.62;-2.87;113.65;-24.95;86.12;0
-7.87;-9.82;-5.36;140.64;-32.26;115.41;0
-7.35;-13.63;-11.71;146.11;-54.8;145.44;0
-6.94;-15.76;-14.34;132.82;-79.32;174.83;0
-5.38;-18.97;-16.7;104.18;-100.88;204.07;0
-1.94;-19.55;-16.18;53.04;-142.42;208.47;0
5.08;-19.55;-16.73;10.41;-179.84;184.42;0
5.24;-19.55;-11.27;52.34;-159.71;164.34;0
3.53;-18.58;-9.49;129.4;-132.39;169.62;0
3.62;-19.36;-10.6;150.72;-85.65;163.76;0
2.35;-17.97;-11.18;142.11;-71.82;164.3;0
4.8;-17.91;-13.44;130.7;-37.68;181.85;0
10.72;-19.55;-15.74;112.91;38.33;155.08;0
9.24;-11.4;-13.65;98.63;47.51;121.21;0
6.12;-8.83;-12.92;80.33;53.77;107.15;0
2.86;-7.66;-11.61;66.36;53.79;105.56;0
0.98;-6.48;-11;59.16;25.52;105.41;0
0.52;-5.69;-10.88;48.24;-0.96;103.35;0
0.59;-4.98;-11.02;32.83;-43.2;101.52;0
1.09;-3.96;-10.67;20.08;-84.86;101.61;0
2.42;-4.01;-10.76;9.17;-121.86;92.92;0
3.61;-3.93;-11.06;2.96;-146.13;78.37;0
4.44;-3.73;-12.15;0.96;-152.73;63.92;0
5.97;-2.53;-13.58;-4.41;-142.77;43.2;0
7.15;-0.81;-14.1;-15.92;-123.07;19.12;0
7.7;0.5;-13.9;-38.64;-95.61;-6.71;0
8.35;0.47;-13.73;-73.89;-57.78;-39.29;0
7.38;-0.09;-13.08;-113.51;-21.59;-75.96;0
7.61;-1.82;-10.58;-145.87;-7.04;-107.41;0
6.7;-5.06;-3.71;-157.32;-48.78;-140.57;0
-1.11;-10.24;1.94;-120.27;-93.07;-167.13;0
-6.79;-15.68;-0.43;-83.16;-78.87;-186.88;0
-14.06;-19.55;-6.15;-86.41;15.12;-186.33;0
-19.7;-19.55;-6.99;-110.68;162.72;-121.37;0
-19.7;-19.55;-1.15;-73.5;213.22;14.12;0
-15.08;-14.92;-5.17;-18.99;205.47;89.37;0
-7.86;-7.82;-11.28;-6.79;201.57;118.6;0
6.13;-10.69;-15.62;-39.25;127.65;110.25;0
18.41;-19.22;-16.66;-112.14;25.2;38.53;0
19.52;-19.55;-10.15;-156.69;-123.37;-37.53;0
7.43;-17.42;0.38;-77.64;-81.91;-75.78;0
0.83;-13.69;-5.98;45.4;-39.77;-56.3;0
2.65;-9.34;-13.96;82.43;-16.92;-53.53;0
6.02;-6.03;-19.28;55.37;47.35;-58.8;0
8.09;-2.46;-21.1;1.67;108.01;-71.89;0
9.6;-1.71;-21.42;-52.29;168.19;-83.54;0
9.34;-2.99;-19.1;-88.73;197.09;-105.29;0
6.48;-6.3;-16.18;-100.31;181.87;-126.77;0
1.76;-9.61;-14.45;-93.86;158.97;-133.14;0
-2.3;-13.31;-13.59;-85.05;133.08;-124.3;0
-6.82;-16.41;-11.94;-71.9;92.93;-102.48;0
-9.14;-16.96;-11.26;-59.06;62.39;-89.89;0
-10.04;-11.93;-9.86;-50.34;43.16;-82.23;0
-8.25;-6.98;-9.8;-48.82;13.09;-59.79;0
-5.88;-5.62;-10.99;-62.33;-10.4;-44.54;0
-3.05;-6.32;-10.73;-75.54;-23.83;-36.37;0
-1.49;-8.59;-9.52;-74;-33.27;-36.46;0
-0.32;-10.89;-8.92;-53.62;-23.1;-43.16;0
0.5;-11.39;-10.2;-38.37;0.76;-51.28;0
0.7;-10.73;-11.37;-33.21;21.35;-54.88;0
0.96;-10.76;-11.95;-36.7;29.83;-54.93;0
1.72;-11.21;-11.6;-36.57;31.63;-58.33;0
1.92;-11.76;-10.75;-27.48;37.57;-66.56;0
-0.02;-11.77;-10.71;-15.14;50.18;-72.69;0
-2.86;-11.25;-10.7;-13.11;57.77;-72.28;0
-5.41;-10.51;-10.05;-21.11;55.74;-68.51;0
-8.05;-10.29;-8.95;-27.43;55.87;-61.2;0
-9.45;-10.07;-7.94;-20.86;60.12;-49.69;0
-9.61;-10.24;-7.81;-3.57;57.72;-40.36;0
-9.38;-11.06;-7.97;14.5;43.54;-31.71;0
-7.79;-11.87;-7.83;26.23;34.92;-19.14;0
-6.85;-11.31;-6.66;35.18;30.41;-8.35;0
-7.52;-9.26;-5.87;45.1;27.12;6.26;0
-9.1;-7.05;-5.38;55.8;9.39;26.77;0
-11.53;-6.89;-4.07;78.64;-14.65;54.15;0
-11.21;-7.73;-1.22;114.43;-14.35;86.8;0
-10.04;-10.52;-3.18;157.83;1.6;118.37;0
-7.56;-12.52;-10.35;171.63;1.96;143.21;0
-6.11;-13.62;-14.01;158.7;-43.98;162.28;0
-5.24;-15.7;-16.16;131.81;-85.37;184.34;0
-4.82;-19.55;-16.97;87.3;-119.07;206.56;0
0.94;-19.55;-17.6;32.72;-189.05;202.41;0
5.42;-19.55;-17.22;12.01;-176.38;176.37;0
1.38;-19.55;-8.09;66.26;-124.52;168.85;0
1.25;-19.55;-8.62;140.29;-91.29;173.31;0
0.7;-18.41;-9.73;150.88;-102.06;173.21;0
2.93;-17.86;-12.5;137.14;-69.11;187.02;0
9.35;-19.55;-15.61;118.64;18.2;176.25;0
8.99;-12.69;-14.27;104.94;34.76;137.13;0
6.47;-9.35;-14.12;86.04;26.97;122.99;0
3.89;-8.04;-12.55;67.47;27.64;115.69;0
2.93;-7.13;-11.06;58.92;22.63;112.38;0
1.74;-5.89;-9.98;54.45;-5.91;104.93;0
2.4;-5.96;-10;46.39;-35;91.56;0
1.89;-5.17;-10.26;35.08;-79.79;79.44;0
2.22;-4.69;-10.7;25.58;-109.59;74.1;0
3.71;-4.3;-11.74;14.3;-126.03;62.67;0
4.24;-3.59;-13.18;4.36;-133.99;47.94;0
5.77;-2.23;-14.31;-7.56;-123.27;27.84;0
6.83;-1.18;-14.81;-22.92;-107.29;1.66;0
7.31;0.29;-14.7;-44.76;-79.59;-26.96;0
8.75;1.06;-15.27;-71.29;-30.49;-61.28;0
8.46;0.66;-16.01;-107.1;21.46;-98.62;0
7.46;-0.96;-13.41;-143.15;40.67;-132.3;0
7.46;-4.3;-6.38;-168.69;-10.61;-158.61;0
3.61;-9.63;1.64;-142.19;-76;-179.81;0
-1.12;-16.7;0.45;-105.28;-74.68;-199.69;0
-8.61;-19.55;-3.74;-87.66;-14.87;-199.46;0
-19.7;-19.55;-6.57;-106.01;81.04;-138.36;0
-19.7;-19.55;0.99;-109.58;246.81;19.23;0
-19.7;-11.8;-1.12;-36.82;254.27;122.55;0
-10.96;-3.12;-11.41;7.62;254.27;143.5;0
-0.59;0.55;-12.46;-5.25;251.32;156.17;0
16.89;-5.16;-14.42;-78.4;144.28;87.34;0
19.52;-19.03;-12.77;-173.1;-110.88;-56.88;0
19.52;-19.55;-6.2;-172.24;-204.43;-160.04;0
-3.64;-19.55;0.89;0.06;-104.31;-119.37;0
-6.34;-14.94;-9.73;97.84;-87.33;-93.88;0
-4.39;-11.98;-18.98;113.05;-47.49;-48.67;0
2.23;-7.1;-22.64;61.43;70.96;-26.64;0
8.31;-3.9;-23.61;-19.11;149.86;-38.75;0
11.08;-1.05;-22.22;-93.79;188.66;-64.21;0
10.69;-2.2;-17.89;-132.21;183.46;-94.36;0
7.21;-6.58;-13.53;-118.22;147.55;-117.91;0
1.53;-11.14;-12.02;-71.32;128.67;-127.72;0
-3.02;-14.78;-12.98;-36.27;97.01;-126.9;0
-7.22;-16.64;-13.81;-30.57;37.26;-117.91;0
-9.89;-14.61;-12.76;-39.26;-17.82;-108.85;0
-10.97;-9.57;-10.44;-57.57;-25.39;-90.17;0
-10.53;-5.56;-8.6;-75.89;-4.1;-57.36;0
-7.63;-5.05;-7.17;-87.73;-7.5;-25.26;0
-2.71;-7.51;-6.02;-80.23;-22.6;-11.57;0
0.33;-10.14;-7.09;-48.79;-29.84;-20.5;0
1.5;-11;-9.96;-23.11;-12.17;-29.98;0
2.75;-9.92;-12.24;-11.4;14.64;-32.1;0
3.94;-9;-13.55;-13.81;33.8;-37.47;0
5.56;-9.17;-13.21;-21.9;36.7;-49.59;0
5.68;-10.24;-11.54;-23.73;32.18;-65.82;0
2.91;-11.38;-11.04;-17.42;48.28;-75.27;0
-0.49;-10.95;-10.89;-15.38;70.32;-76.63;0
-3.38;-10.17;-10.46;-22.63;78.99;-75.32;0
-5.42;-9.55;-9.07;-32.11;82.39;-72.66;0
-6.79;-10.14;-8.04;-21.68;96.54;-69.12;0
-8.5;-11.24;-8.68;4.7;102.97;-64.95;0
-10.4;-11.78;-9.25;22.75;81.29;-55.54;0
-10.39;-11.47;-8.66;26.62;51.22;-43.2;0
-9.9;-10.63;-6.95;25.53;27.96;-32.75;0
-10.54;-9.48;-5.41;31.69;13.13;-17.53;0
-11.75;-8.05;-5.09;47.58;-0.61;7.24;0
-12.44;-7.46;-6.28;67.83;-19.8;38.8;0
-12.34;-8.71;-5.76;91.36;-39.35;67.26;0
-11.69;-10.42;-5.71;119.34;-35.71;102.86;0
-10.15;-12.61;-8.97;135.95;-40.69;131.9;0
-8.63;-14.19;-12.82;133.63;-84.09;155.77;0
-6.27;-15.17;-14.27;115.74;-112.61;183.99;0
-3.81;-19.16;-15.87;80.17;-124.65;216.92;0
-0.06;-19.55;-16.38;38.72;-160.8;220.75;0
7;-19.55;-17.29;14.91;-176.19;188.28;0
5.79;-19.55;-11.34;68.83;-126.47;170.74;0
4.06;-19.55;-9.78;149.21;-100.61;180.33;0
3.52;-17.79;-10.56;160.67;-77.56;176.41;0
4.22;-17.68;-11.41;141.19;-52.91;183.25;0
9.46;-19.55;-13.24;120.56;22.24;163.17;0
8.79;-12.62;-12.84;110.76;42.54;135.22;0
6.18;-9.53;-13.38;93.19;50.9;118.66;0
3.55;-7.64;-12.85;74.03;53;112.19;0
1.21;-6.48;-11.6;64.25;30.51;108.86;0
0.42;-6.47;-11.57;57.6;-1.22;101.88;0
-0.02;-5.29;-10.91;46.93;-46.1;96.67;0
0.5;-4.81;-10.76;35.86;-84.81;91.32;0
1.07;-4.44;-10.77;26.3;-119.71;85.43;0
2.51;-4.49;-11.24;16.58;-144.46;74.56;0
3.39;-4.69;-12.17;8.06;-160.96;61.83;0
4.53;-4.24;-13.62;0.85;-160.42;41.66;0
5.72;-2.86;-15.01;-8.72;-144.65;19.96;0
6.73;-0.99;-15.62;-25.66;-121.13;-0.72;0
8.19;0.87;-15.63;-50.63;-80.11;-23.98;0
9.17;0.62;-16.28;-83.64;-9.88;-51.86;0
7.81;-0.54;-15.74;-121.26;49.8;-90;0
7.83;-2.73;-12.36;-159.45;49.98;-120.53;0
6.92;-5.34;-3.05;-188.79;-41.89;-149.56;0
-0.95;-12.73;5.68;-149.59;-141.72;-172.57;0
-6.88;-19.09;3.44;-86.23;-113.55;-181.59;0
-16.38;-19.55;-5.69;-75.9;26.87;-174.09;0
-19.7;-19.55;-7.04;-92.58;183.9;-95.4;0
-19.7;-19.55;-3.09;-62.99;254.27;55.12;0
-12.96;-8.63;-7.6;-24.37;254.27;106.48;0
-2.15;-3.6;-11.91;-19.24;254.27;118.57;0
10.72;-5.26;-14.29;-62.91;175.24;85.25;0
19.52;-17.04;-15.33;-153.9;20.78;-7.94;0
19.52;-19.55;-6.43;-214.03;-183.76;-98.16;0
0.47;-19.55;9.54;-53.33;-102.98;-96.85;0
-5.98;-16.14;-4.6;107.66;0.95;-81.98;0
-4.08;-11.61;-15.77;155.24;35.17;-62.53;0
-0.66;-5.5;-20.99;123.1;75.04;-46.21;0
4.76;-2.67;-25.02;45.29;135.27;-52.4;0
7.43;1.05;-25.9;-38.5;167.96;-73.62;0
7.33;-0.4;-22.78;-96.05;156.54;-97.1;0
5.15;-4.63;-18.6;-119.47;94.51;-111.52;0
2.06;-8.48;-15.11;-120.99;53.19;-113.07;0
-1.09;-11.92;-12.47;-112.24;39.87;-105.44;0
-4.4;-16.58;-10.6;-100.21;22.61;-92.53;0
-6.6;-18.53;-9.32;-83.28;11.62;-86.59;0
-6.99;-13.35;-7.87;-67.71;25.89;-82.01;0
-5.41;-7.88;-6.75;-62.36;21.97;-62.46;0
-3.42;-7.09;-6.22;-63.19;2.16;-48.4;0
-2.02;-8.18;-6.19;-48.47;-6.87;-49.02;0
-2.15;-9.57;-8.58;-28.93;5.5;-44.49;0
-0.42;-10.25;-10.96;-23.63;15.61;-47.74;0
0.14;-10.2;-12.31;-18.69;24.03;-45.12;0
1.44;-9.58;-13.16;-21.75;37.99;-48.5;0
1.08;-9.62;-13.03;-27.66;39.87;-52.98;0
1.11;-9.89;-12.16;-31.39;30.19;-58.01;0
0.61;-9.93;-10.88;-25.31;26.93;-63.08;0
-0.57;-9.36;-10.61;-17.92;39.93;-66.33;0
-2.61;-9.22;-10.06;-16.65;58.34;-68.02;0
-5.17;-9.8;-9.3;-13.95;82.93;-69.04;0
-7.35;-10.6;-9.02;1.3;102.43;-65.54;0
-9.11;-11.34;-9.94;19.38;85.1;-55.46;0
-9.74;-11.46;-10.36;22.87;44.52;-44.74;0
-9.99;-11.21;-8.65;14.78;19.16;-30.24;0
-9.8;-9.88;-5.7;15.05;13.48;-15.37;0
-9.77;-8.56;-3.42;31.02;3.04;3.29;0
-10.59;-7.92;-3.3;55.6;-21.68;30.06;0
-10.05;-7.83;-3.17;86.38;-39.62;53.31;0
-8.73;-8.85;-3.27;120.39;-33.3;74.9;0
-8.82;-11.55;-6.52;149.55;-18.62;100.59;0
-8.37;-13.28;-12.09;155.43;-31.51;127.76;0
-7.12;-14.49;-15.55;141.85;-79.71;149.63;0
-6.03;-14.82;-16.73;112.83;-103.91;177.27;0
-5.04;-18.2;-17.72;72.38;-151.93;196.53;0
-1.46;-19.55;-18.45;23.48;-227.47;194.51;0
2.76;-19.55;-18.05;-6.52;-225.38;173.94;0
0.19;-19.55;-10.07;26.02;-141.85;176.45;0
-0.02;-19.55;-5.53;126.99;-115.88;200.15;0
4.39;-19.55;-9.86;155.66;-105.4;195.69;0
10.81;-19.55;-13.67;151.33;-52.59;179.79;0
10.79;-15.94;-13.75;139;-20.1;143.35;0
9.69;-11.12;-14.2;114.47;8.18;129.65;0
6.83;-9.02;-13.3;88.11;39.39;122.09;0
5.25;-8.22;-11.95;75.03;62.92;115.15;0
3.99;-7.02;-11.22;68.35;61.96;106.7;0
2.49;-5.65;-10.71;57.39;24.06;88.89;0
2.07;-4.72;-10.72;45.45;-17.31;78.47;0
1.87;-3.91;-10.52;33.59;-59.87;67.18;0
1.57;-4.08;-10.51;21.99;-101.1;54.84;0
2.23;-4.07;-11.02;11.03;-123.13;41.44;0
2.72;-3.9;-12.15;3.45;-127.78;28.21;0
4.28;-3.1;-13.51;-3.76;-109.55;10.96;0
5.03;-1.65;-14.43;-14.54;-86.54;-6.66;0
6.13;0.15;-14.65;-30.96;-50.39;-22.74;0
8.63;1.13;-15.23;-57.66;14.6;-43.69;0
8.9;0.61;-15.62;-95.97;74.86;-78.99;0
6.5;-1.42;-13.04;-134.79;81.35;-114.08;0
6.27;-4.23;-7;-161.14;20.82;-129.56;0
0.98;-8.26;3.12;-135.45;-90.46;-148.92;0
-4.06;-14.48;2.16;-82.5;-129.29;-168.21;0
-10.54;-18.71;-6.95;-47.14;-40.18;-182.8;0
-19.7;-19.55;-13.87;-83.72;71.83;-159.24;0
-19.7;-19.55;-9.43;-107.58;227.55;-44.8;0
-19.7;-15.82;-5.02;-59.64;254.27;68.4;0
-12.26;-6.42;-7.58;-28.42;254.27;123.44;0
3.66;-7.64;-9.03;-66.53;130.83;134.83;0
19.52;-19.55;-11.04;-140.11;-15.97;51.86;0
19.52;-19.55;-0.01;-146.66;-188.64;-62.69;0
4.67;-19.55;-0.23;9.22;-17.49;-91.88;0
-4.1;-14.49;-9.69;97.24;35.74;-79.06;0
-3.96;-9.16;-17.55;102.12;33.61;-46.67;0
1.34;-4.65;-20.42;61.7;83.22;-20.33;0
8.59;-2.94;-22.29;-4;123.77;-37.8;0
11.65;-1.44;-21.64;-66.43;128.29;-78.9;0
9.98;-3.19;-18.31;-99.95;120.28;-118.52;0
4.89;-6.12;-14.72;-96.34;100.98;-139.85;0
-0.42;-9.29;-12.43;-74.37;71.19;-135.49;0
-3.49;-13.36;-12.48;-56.31;54.45;-119.69;0
-6.46;-16.28;-13.05;-45.5;31.74;-103.37;0
-8.42;-14.49;-11.91;-42.07;16.73;-90.33;0
-7.37;-10.36;-10.7;-50.08;14.41;-73.21;0
-4.6;-7.25;-9.98;-67.15;6.71;-55.98;0
-2.33;-6.5;-9.15;-84.54;-12.49;-46.19;0
-0.83;-7.88;-7.73;-85.73;-23.32;-45.27;0
-1.07;-9.92;-7.18;-61.08;-13.84;-50.5;0
-0.73;-11;-8.72;-32.79;6.35;-56.65;0
-0.93;-10.48;-10.5;-17.19;20.54;-53.85;0
0.26;-9.26;-12.19;-19.64;33.12;-58.06;0
0.19;-9.12;-12.95;-25.56;35.05;-59.01;0
0.95;-9.92;-12.95;-30.3;20.77;-61.14;0
1.83;-10.81;-12.15;-27.6;7.99;-68.14;0
0.27;-11.46;-10.6;-20.99;12.48;-71.17;0
-1.82;-10.81;-10.01;-21.72;27.39;-73.12;0
-5.44;-10.16;-7.86;-29.69;41.83;-65.48;0
-8.21;-9.96;-6.1;-32.97;59.45;-52.59;0
-9.2;-10.69;-6.81;-12.83;77.91;-44.46;0
-9.76;-11.26;-8.21;15.35;72.16;-37.95;0
-8.69;-11.2;-8.47;29.05;47.91;-31.53;0
-7.32;-11.19;-7.13;31.83;38.72;-25.11;0
-7.65;-11.04;-5.15;46.18;45.32;-14.16;0
-10.35;-9.28;-4.95;67.74;31.96;8.51;0
-12.48;-7.34;-5.23;79.3;-1.35;32.28;0
-14.35;-7.52;-4.3;99.68;-35.36;65.02;0
-12.74;-7.87;-5.62;127.45;-57.27;101.23;0
-9.59;-9.93;-8.71;148.55;-51.4;135.76;0
-8.24;-12.73;-11.26;154.3;-63.64;167.31;0
-5.56;-17.41;-14.16;123.98;-65.33;210.28;0
-2.57;-19.55;-16.83;78.76;-104.06;233.1;0
5.12;-19.55;-19.31;21.98;-164.34;190.29;0
9.37;-19.55;-17.01;3.95;-107.59;141.41;0
2.67;-17.67;-7.25;83.48;-98.56;157.82;0
1.88;-19.05;-10.61;147.11;-95.32;166.15;0
1.64;-19.16;-11.56;145.37;-81.66;159.25;0
1.22;-17.32;-12;118.52;-70.74;168.97;0
5.73;-19.55;-14.48;99.84;-24.21;167.5;0
7.93;-13.56;-14.02;91.98;5.76;140.34;0
7.2;-9.2;-13.15;79.85;8.79;120.86;0
5.73;-7.49;-12.25;67.71;9.1;109.66;0
5.09;-6.3;-11.57;61.61;12.45;100.79;0
2.91;-4.99;-11.12;55.6;-12.55;89.99;0
2.2;-4.59;-11.25;43.69;-36.16;83;0
1.19;-3.89;-11.15;29.56;-74.39;76.6;0
1.24;-3.62;-11.32;14.6;-102.36;76.67;0
2.48;-3.53;-12.02;2.05;-120.81;71.96;0
3.8;-3.42;-12.9;-7.74;-125.33;59.73;0
5.24;-2.76;-14.08;-18.26;-114.12;42.86;0
6.75;-1.82;-14.8;-29.2;-93.13;19.08;0
7.05;-0.41;-14.03;-47.26;-64.46;-7.04;0
8.11;-0.26;-14.16;-69.13;-18.04;-31.17;0
7.24;-0.93;-14.03;-100.18;15.48;-61.27;0
6.14;-2.27;-11.7;-135.83;8.24;-86.42;0
7.87;-5.09;-4.15;-159.7;-56.38;-113.08;0
2.11;-10.39;3.64;-116.52;-125.09;-139.3;0
-4.01;-15.66;1.04;-55.31;-120.61;-162.82;0
-11.02;-18.73;-6.36;-35.34;-58.41;-173.46;0
-19.7;-19.55;-10.85;-87.53;69.26;-133.85;0
-19.7;-19.55;-4.75;-97.84;235.45;-5.63;0
-15.42;-13;-3.1;-48.12;254.27;62.99;0
-8.08;-6.03;-8.43;-15.12;251.48;91.3;0
3.57;-5.51;-11.8;-47.21;151.77;90.93;0
16.91;-15.79;-13.75;-132.37;61.18;37.16;0
19.52;-19.55;-9.28;-176.7;-61.83;-50.29;0
6.82;-19.55;-0.47;-69.09;-14.57;-105.14;0
-4.13;-18.22;-6.21;65.48;30.51;-91.88;0
-5.85;-11.03;-14.42;112.14;-6.63;-63.5;0
-1.73;-5.58;-19.6;88.81;4.05;-33.75;0
4.72;-2.97;-21.67;17.79;63.58;-26.35;0
10.45;-2.04;-22.13;-58.73;125.06;-46.97;0
12.85;-2.3;-19.13;-116.38;158.7;-82.6;0
10.7;-5.09;-14.41;-128.51;156.08;-114.2;0
5.29;-8.92;-10.94;-95.36;130.82;-131.19;0
-0.01;-12.51;-10.77;-47.45;121.31;-125.7;0
-4.29;-16.03;-12.73;-18.6;95.67;-115.4;0
-8.55;-15.57;-13.85;-15.89;45.8;-106.02;0
-10.86;-11.89;-13.22;-34.09;6.68;-93.64;0
-10.55;-7.58;-11.76;-60.02;6.41;-71.27;0
-8.29;-5.7;-10.47;-81.47;4.28;-45.5;0
-4.8;-6.4;-9.4;-93.43;-8.49;-28.33;0
-1.14;-8.31;-7.63;-85.73;-20.94;-21.74;0
1.22;-10.68;-7.57;-54.78;-23.12;-32.03;0
1.46;-10.82;-9.74;-28.34;6.09;-42.53;0
1.44;-9.92;-11.58;-18.92;36.48;-48.4;0
1.59;-9.32;-12.92;-22.22;56.59;-53.66;0
1.77;-9.81;-13.01;-30.04;61.67;-59.74;0
1.86;-10.79;-12.31;-32.55;51.63;-68.32;0
1.38;-11.55;-11.43;-24.26;45.96;-77.44;0
-1.06;-11.55;-10.92;-13.46;52.32;-81.94;0
-4.29;-10.33;-10.06;-12.08;61.12;-79.04;0
-6.94;-9.71;-9.21;-17.28;61.04;-69.34;0
-8.3;-9.4;-8.12;-12.48;62.11;-57.36;0
-8.45;-9.67;-8.32;5.46;67.19;-49.66;0
-8.58;-10.43;-9.22;18.5;55.34;-44.69;0
-8.34;-11.59;-9.57;21.2;31.29;-38.51;0
-7.81;-11.81;-8.58;27.01;16.51;-29.87;0
-8.41;-10.34;-6.15;40.15;16.22;-17.22;0
-9.82;-8.39;-4.55;55.84;14.29;3.12;0
-11.15;-7.52;-4.08;73.07;-0.9;32.96;0
-11.18;-8.47;-2.83;100.15;-22.59;68.08;0
-9.73;-10.53;-4.39;130.93;-26.13;102.12;0
-8.3;-11.91;-9.26;139.63;-26.57;131.23;0
-7.67;-14.17;-12.99;135.5;-48.79;156.72;0
-5.52;-15.69;-15.21;119.21;-74.17;187.21;0
-3.37;-19.55;-17.31;94.33;-107.39;205.27;0
1.21;-19.55;-17.59;49.08;-160.26;196.63;0
6.08;-19.55;-17.9;20.94;-135.27;168.86;0
3.1;-17.62;-9.54;47.72;-106.23;167.17;0
1.85;-17.71;-7.8;105.21;-72.59;177.21;0
2.92;-18.14;-9.01;128.45;-64.17;166.48;0
4;-17.34;-11;123.95;-57.74;164.96;0
9.2;-19.49;-14.14;107.99;-0.49;158.25;0
8.76;-12.79;-14.37;93.07;23.05;122.25;0
5.48;-9.57;-14.4;69.25;25.28;102.63;0
2.48;-7.93;-13.48;48.66;30.29;105.11;0
1.08;-7.37;-11.73;39.32;12.98;109.38;0
0.68;-6.99;-11.11;35.5;-21.09;105.67;0
0.95;-6.5;-10.76;29.05;-56.52;101.37;0
0.76;-5.74;-10.55;21;-97.49;96.83;0
1.38;-5.37;-10.8;11.76;-132.97;91.54;0
2.3;-5.39;-11.21;1.73;-160.76;77.5;0
4.09;-5.06;-12.53;-3.24;-168.46;58.76;0
5.47;-4.22;-13.77;-6.32;-159.53;36.34;0
7.35;-2.62;-14.51;-10.8;-141.4;12.67;0
9.75;-0.7;-14.68;-21.67;-107.88;-12.82;0
11.42;1.12;-14.65;-37.92;-37.33;-38.44;0
9.89;1.13;-14.44;-60.8;35.32;-64.33;0
7.31;0.48;-12.37;-93.42;54.45;-91.04;0
6.19;-0.67;-7.57;-129.4;-5.82;-120.19;0
0.7;-4.75;0.35;-136.83;-112.56;-144.72;0
-3.64;-10.88;0.18;-108.83;-140.6;-161.5;0
-8.38;-15.5;-2.83;-86.28;-61.55;-166.43;0
-15.74;-19.55;-7.95;-117.57;32.22;-159.05;0
-19.7;-19.55;-1.85;-127.44;159.46;-85.1;0
-18.54;-19.55;-0.53;-55.52;252.36;35.73;0
-10.5;-14.31;-8.25;-5.89;249.32;106.52;0
4.14;-13.79;-13.46;-13.2;215.66;130.31;0
18.42;-19.55;-19.23;-58.71;203.83;81.76;0
19.52;-19.55;-14.32;-102.6;50.21;-3.18;0
16.36;-13.88;-7.5;-96.93;-87.75;-101.91;0
0.34;-11.95;-4.87;-17.82;-42.88;-108.21;0
-4.64;-10.23;-9.31;48.63;25.45;-78.37;0
-1.69;-6.54;-14.67;62.55;92.03;-55.09;0
3.65;-3.52;-18.82;36.01;152.61;-60.38;0
7.01;-1.93;-20.84;-9.07;190.37;-81.5;0
7.58;-2.53;-20.1;-46.8;176.9;-104.83;0
5.19;-4.85;-17.21;-65.24;116.26;-120.99;0
1.55;-9.59;-14.35;-65.47;68.33;-124.88;0
-3.3;-14.37;-13.05;-60.37;49.19;-108.2;0
-7.97;-16.66;-11.72;-50.28;39.65;-81.92;0
-11.04;-13.97;-10.36;-37.99;33.76;-62.63;0
-10.9;-9.5;-9.34;-35;23.82;-55.75;0
-8.11;-6.46;-9.23;-41.6;-3.38;-46.98;0
-4.52;-5.85;-9.67;-53.54;-26.89;-38.61;0
-2.17;-6.81;-10.34;-65.73;-31.29;-27.96;0
0.99;-8.76;-10.73;-71.47;-33.79;-29.16;0
4.33;-11.68;-10.03;-59.66;-39.2;-46.01;0
4.68;-11.94;-10.31;-40.56;-25.56;-67.23;0
3.29;-10.82;-11.03;-29.21;-3.51;-82.52;0
1.17;-9.86;-11.69;-26.86;11.25;-84.37;0
0.01;-9.37;-11.17;-31.97;16.71;-80.39;0
-0.78;-9.43;-9.58;-34.82;22.25;-75.08;0
-1.41;-10.63;-9.28;-29.79;29.2;-72.07;0
-3.32;-11.55;-10.17;-30.42;35.89;-69.7;0
-5.09;-11.35;-9.71;-32.57;47.61;-64.11;0
-6.92;-10.89;-8.19;-22.66;65.95;-59.99;0
-8.55;-11.25;-7.53;-0.72;75.96;-53.1;0
-9.05;-11.99;-8.3;22.06;71.2;-39.82;0
-9.04;-11.82;-8.9;32.83;59.2;-28.91;0
-10.25;-10.31;-7.4;36.91;47.74;-16.74;0
-11.97;-8.3;-4.98;46.72;35.26;2.62;0
-12.96;-6.47;-3.05;65.46;15;30.57;0
-11.05;-6.2;-1.89;93.05;-7.33;54.23;0
-11.14;-7.7;-2.68;128.97;-12.99;91.67;0
-8.68;-9.79;-7.67;156.81;-18.13;120.32;0
-8.03;-13.26;-13.15;160.12;-48.92;150.74;0
-7.31;-15.88;-14.9;142.3;-82.94;181.16;0
-7.1;-19.55;-17.08;105.85;-102.97;222.98;0
-2.53;-19.55;-18.18;57.5;-171.45;215.55;0
5.53;-19.55;-20.34;15.15;-199.44;173.07;0
4.19;-17.29;-16.21;12.91;-177.81;145.64;0
-2.63;-15.81;-6.44;57.03;-112.09;172.89;0
-0.93;-19.55;-7.3;112.43;-106.15;195.75;0
3.01;-19.55;-10.18;127.12;-109.71;192.13;0
7;-19.55;-13.72;122.33;-95.98;190.44;0
12.26;-19.55;-15.54;108.34;-32.54;148.4;0
9.94;-11.54;-14.08;103.89;-21.63;116;0
6.46;-9.07;-12.91;92.78;-14.89;108.33;0
4.6;-7.79;-11.05;80.08;-5.49;109.89;0
4.44;-6.87;-10.28;73.7;-8.23;103;0
2.94;-5.54;-9.84;68.9;-27.06;93.67;0
2.34;-4.86;-10.41;59.49;-43.85;84.67;0
1.65;-4.08;-10.9;48.66;-66.01;81.34;0
2.4;-3.31;-11.59;38.16;-79.51;82.75;0
3.96;-2.83;-12.55;23.49;-85.2;74.01;0
4.57;-2.25;-13.52;8.19;-92.18;55.6;0
5.59;-1.99;-14.44;-10.14;-81.91;40.35;0
7.76;-1.13;-14.48;-31.17;-65.28;13.56;0
7.89;-0.38;-13.92;-57.08;-47.94;-20.57;0
6.82;-0.53;-13.39;-83.54;-19.35;-48.85;0
6.06;-1.02;-13.02;-116.17;0.32;-73.07;0
6.89;-1.83;-11.58;-149.47;-3.84;-107.22;0
6.08;-4.32;-4.67;-164.19;-45.39;-140.84;0
1.49;-8.78;-0.08;-136.08;-73.43;-164.77;0
-3.85;-15.01;-0.51;-99.66;-63.33;-184.84;0
-9.76;-19.55;-5.2;-93.34;-4.99;-193.96;0
-18.91;-19.55;-9.73;-117.37;117.4;-152.95;0
-19.7;-19.55;-4.89;-112.09;234.79;-29.82;0
-16.42;-15.84;-2.93;-61.39;254.27;56.36;0
-10.06;-8.18;-8.48;-30.5;254.27;100.79;0
0.57;-8.81;-11.26;-46.81;165.69;105.96;0
13.97;-19.55;-14.2;-109.42;56.06;46.04;0
19.52;-19.55;-6.2;-160.85;-97.26;-44.95;0
7.55;-19.55;3.01;-42.33;-9.1;-97.63;0
-1.29;-13.16;-7.17;83.86;48.68;-89.71;0
-1.78;-7.79;-15.28;111.82;21.01;-72.21;0
1.14;-4.17;-20.41;77.65;43.34;-57.68;0
5.08;-1.99;-23.36;19.05;101.77;-66.7;0
7.59;-0.41;-23.65;-38.72;139.74;-86.5;0
8.16;-2.82;-21.47;-76.34;154.5;-107.83;0
5.46;-5.36;-17.69;-93.24;123.2;-121.73;0
1.26;-9.61;-14.26;-94.34;83.26;-121.1;0
-3.26;-13.63;-11.99;-94.05;51.98;-103.91;0
-6.67;-16.13;-10.21;-92.79;30.93;-79.92;0
-8.72;-15.35;-8.06;-78.95;22.76;-64.72;0
-7.39;-10.79;-6.75;-58.78;22.35;-56.2;0
-5.09;-7.86;-7.76;-47.17;10.89;-48.53;0
-3.23;-7.07;-9.52;-47.29;2.35;-43.8;0
-1.58;-7.93;-9.93;-48.08;-14.22;-41.68;0
0.1;-9.4;-11.17;-42.66;-17.66;-42.43;0
1.13;-10.24;-11.91;-37.22;-11.42;-48.1;0
1.8;-10.45;-12.14;-33.51;-1.6;-55.78;0
1.55;-10.13;-12.36;-33.12;6.23;-61.67;0
1;-10.04;-12.3;-38.39;10.6;-65.69;0
1.32;-10.7;-10.3;-37.94;13.58;-71.77;0
0.79;-11.47;-8.79;-18.44;25.14;-74.43;0
-0.29;-11.45;-9.47;-4.72;42.8;-74.14;0
-3.14;-11.04;-10.24;-7.94;51.83;-67.73;0
-5.18;-10.64;-9.56;-18.28;61.74;-60.91;0
-7.13;-10.43;-8.42;-17.13;76.57;-54.96;0
-8.47;-10.32;-7.89;-1.29;85.67;-49.17;0
-9.36;-11.23;-7.76;16.95;75.17;-43.72;0
-9.61;-11.69;-7.16;35.95;58.32;-32.95;0
-9.42;-11.11;-6.18;53.97;57.99;-18.37;0
-10.19;-9.31;-5.43;68.98;57;-0.6;0
-11.17;-7.32;-4.57;79.37;40.82;21.36;0
-12.14;-6.79;-3.4;97.98;9.84;48.74;0
-11.06;-6.76;-5.1;121.36;-24.01;79.83;0
-8.42;-7.75;-7.46;140.04;-35.47;108.14;0
-7.19;-10.45;-10.85;147.07;-39.5;136.12;0
-6.8;-13.34;-13.23;136.64;-59.18;173.64;0
-6.27;-19.2;-16.32;105.17;-73.79;220.22;0
-3.2;-19.55;-17.47;42.84;-119.52;218.08;0
7.43;-19.55;-20.06;-15.37;-116.81;175.26;0
4.39;-17.34;-11.5;17.36;-106.98;152.15;0
1.19;-16.78;-7.3;111.63;-85;178.92;0
1.42;-18.87;-9.33;138.64;-58.71;171.91;0
0.66;-18.38;-10.1;130.75;-73.3;167.96;0
4.17;-19.38;-12.38;106.46;-47.78;181.89;0
10.09;-18.33;-13.98;83.75;-2.55;160.45;0
8.73;-10.93;-12.35;73.51;-2.28;127.28;0
5.34;-8.69;-11.88;62.09;4.35;112.95;0
3.12;-7.57;-11.21;54.05;13.19;111.34;0
2.3;-6.09;-10.54;47.86;-1.65;109.54;0
2.29;-5.38;-10.74;40.1;-25.78;101.9;0
2.23;-5;-11;28.9;-52.58;95.69;0
1.35;-3.98;-10.79;14.43;-85.63;86.89;0
1.79;-3.86;-11.03;1.5;-108.36;80.12;0
2.74;-3.93;-11.39;-11.21;-126.72;63.63;0
3.42;-3.77;-11.98;-18.57;-133.07;46.34;0
4.72;-3.73;-13.07;-25.29;-117.45;30.54;0
6.23;-2.47;-13.78;-32.72;-104.09;4.68;0
7.14;-1.55;-14.04;-50.27;-78.57;-16.56;0
9.46;-1.43;-14.23;-78.76;-30.49;-38.8;0
9.47;-2.15;-13.67;-112.25;17.7;-70.2;0
8.22;-4.18;-9.93;-143.42;17.35;-99.46;0
7.76;-7.34;0.18;-142.35;-41.58;-124.14;0
-0.64;-11.81;3.62;-88.57;-107.78;-145.38;0
-7.35;-13.97;0.17;-34.47;-86.51;-161.75;0
-14.43;-15.88;-9.49;-36.17;5.79;-156.82;0
-19.7;-18.43;-12.92;-87.57;127.9;-109.75;0
-19.7;-17.69;-9.64;-99.95;254.27;-1.3;0
-13.43;-11.52;-8.3;-79;254.27;54.35;0
-4.6;-7.78;-8.09;-81.62;222.58;85.72;0
8.84;-16.9;-10.99;-122.66;63.83;63.87;0
19.46;-19.55;-8;-148.07;-78.91;-19.52;0
10.95;-19.55;0.55;-61.2;-63.92;-85.88;0
0.58;-15.8;-4.46;63.78;9.5;-82.83;0
-1.83;-9.16;-13.08;102.17;11.13;-66.39;0
-0.32;-5.55;-18.55;81.3;15.93;-47.66;0
3.24;-2.87;-20.59;33.24;58.31;-47.01;0
6.33;-1.33;-21.44;-18.36;112.39;-62.95;0
8.52;-1.44;-21.1;-59.08;154.05;-84.69;0
8.29;-3.54;-18.98;-82.32;151.53;-108;0
4.52;-7.18;-15.73;-88.56;101.7;-118.4;0
0.31;-10.65;-13.49;-88.91;64.93;-115.53;0
-3.66;-15.28;-12.44;-90.19;38.64;-103.85;0
-7.01;-17.53;-10.92;-85.01;14.27;-88.79;0
-8.56;-14.35;-9.02;-72.54;6.54;-77.83;0
-6.49;-8.34;-7.79;-60.15;-7.18;-65.05;0
-3.82;-6.37;-8.59;-56.14;-21.68;-52.76;0
-1.52;-6.64;-9.19;-55.97;-21.21;-42.75;0
1.02;-7.6;-10.61;-60.18;-14.46;-44.01;0
2.36;-10.09;-10.3;-55.37;-15.17;-55.79;0
2.2;-10.69;-10.83;-41.26;5.64;-64.32;0
1.52;-10.38;-11.47;-31.5;27.25;-69.37;0
0.58;-9.87;-11.83;-30.25;38.8;-68.19;0
0.96;-9.89;-11.71;-32.61;33.9;-68.77;0
0.6;-10.35;-11.34;-25.76;37.61;-70.93;0
-1.17;-10.74;-11.82;-22.13;54.61;-73.13;0
-2.79;-11.09;-11.25;-25.47;56.19;-73.82;0
-5;-11.49;-9.76;-30.93;56.99;-68.35;0
-7.1;-11.71;-8.1;-19.16;79.19;-58.43;0
-9.21;-12.11;-7.69;4.45;98.35;-50.48;0
-10.71;-12.09;-8.57;23.77;82.72;-39.75;0
-10.51;-11.55;-8.8;30.98;51.48;-22.59;0
-10.44;-10.73;-7.28;30.91;31.48;-5.05;0
-10.54;-9.74;-4.17;40.26;26.9;13.24;0
-11.21;-8.88;-1.87;64.88;22.45;33.92;0
-10.61;-8.12;-1.54;95.45;7.71;58.68;0
-9.04;-8.5;-2.18;128.88;-8.07;82.05;0
-7.28;-9.55;-6.12;151.54;-22.58;107.82;0
-6.21;-11.15;-10.61;148.54;-34.06;136.01;0
-6.12;-13.61;-14.34;143.43;-81.23;165.82;0
-5.15;-17.52;-17.74;136.27;-123.44;197.87;0
-4.66;-19.55;-18.35;96.92;-158.23;194.92;0
2.95;-19.55;-19.97;25.95;-178.59;165.23;0
3.74;-18.73;-16.77;4.77;-129.22;143.04;0
-0.75;-16.02;-6.93;47.4;-77.16;164.3;0
1.5;-19.55;-8.14;116.56;-76.31;187.06;0
2.43;-19.55;-9.94;136.85;-86.01;181.57;0
6.64;-19.55;-14.37;135.42;-56.81;184.44;0
10.91;-18.2;-15.81;116.59;10.93;147.61;0
8.59;-10.25;-14.89;98.41;6.13;117.56;0
5.02;-7.95;-13.97;74.74;3.1;111.38;0
3.57;-7.18;-12.31;61.16;11.62;113.26;0
2.76;-6.69;-11.04;56.09;-1.5;106.08;0
1.75;-5.65;-10.7;51.76;-29.33;98.37;0
1.34;-4.98;-10.93;42.94;-60.78;92.21;0
1.28;-4.51;-11.08;30.1;-95.65;85.96;0
2.14;-4.2;-11.63;16.38;-118.39;82.04;0
3.87;-3.74;-12.32;3.34;-128.75;67.78;0
5.37;-3.1;-13.25;-5.89;-125.69;47.35;0
6.29;-2.49;-14.1;-16.64;-115.95;24.63;0
7.16;-0.97;-14.08;-29.76;-104.23;0.05;0
8.24;0.23;-14.01;-48.02;-77.81;-24.9;0
8.92;0.66;-14.13;-72.51;-29.72;-54.04;0
6.63;0.02;-13.58;-100.4;6.04;-79.02;0
6.74;-1.76;-12.02;-133.57;18.95;-108.08;0
7.19;-4.39;-6.97;-166.28;-28.34;-138.48;0
2.08;-10.06;1.7;-154.95;-97.45;-166.68;0
-4.67;-18.94;1.9;-107.26;-77.43;-179.78;0
-14.43;-19.55;-3.33;-84.62;34.35;-169.69;0
-19.7;-19.55;-7.55;-92.05;194.06;-94.85;0
-19.7;-19.55;-5.39;-58.75;254.27;32.64;0
-17.29;-9.11;-10.57;-10.69;254.27;116.34;0
-5.5;-3.55;-14.43;-14.11;250.85;146.37;0
11.17;-7.01;-16.23;-87.31;117.09;105.01;0
19.52;-19.55;-13.08;-186.04;-80.94;-10.32;0
19.52;-19.55;5.17;-195.54;-208.81;-124.33;0
1.57;-19.55;3.4;24.8;9.23;-131.92;0
-5;-13.62;-7.21;122.92;-5.19;-104.28;0
-1.98;-8.55;-17.25;124.55;-16.65;-70.55;0
2.37;-4.38;-22.28;67.55;43.28;-51.73;0
7.35;-3.13;-24.49;-13.05;112.06;-61.14;0
9.27;-1.73;-23.47;-84.39;153.62;-80.8;0
8.35;-4.6;-19.1;-118.34;168.3;-101.17;0
5.18;-7.64;-14.42;-108.84;152.63;-115.03;0
0.74;-10.35;-11.37;-82.5;120.67;-114.7;0
-3.28;-13.29;-10.25;-58.84;88.41;-104.17;0
-7.34;-16.11;-10.69;-41.76;52.58;-91.12;0
-9.86;-14.43;-10.58;-34.45;21.03;-80.72;0
-9.33;-10.33;-10.72;-40.63;12.44;-65.3;0
-6.55;-6.96;-11.19;-57.24;5.03;-48.81;0
-3.68;-5.86;-11.46;-77.5;-5.33;-34.22;0
-1.14;-7.14;-9.98;-89.72;-17.11;-28.69;0
1.46;-9.27;-8.04;-81.27;-31.12;-34.16;0
3.36;-11.67;-7.74;-52.2;-22.13;-47.88;0
3.4;-11.04;-9.78;-24.18;-0.4;-59.88;0
2.28;-10.06;-12.22;-14.52;23.23;-64.07;0
1.25;-9.59;-13.36;-21.39;41.64;-66.08;0
0.83;-9.82;-12.37;-33.23;44.81;-68.17;0
0.43;-10.51;-9.89;-37.08;45.2;-72.83;0
-2.1;-11.44;-8.35;-25.92;59.61;-71.04;0
-5.43;-11.85;-8.68;-18.49;73.19;-62.46;0
-7.64;-12.75;-9.24;-1.76;87.87;-52.82;0
-9.02;-12.36;-10.18;21.14;103.73;-45.44;0
-9.35;-10.59;-10.31;27;89.64;-35.33;0
-10.24;-10.72;-9.02;21.34;56.58;-20.93;0
-10.64;-11.21;-6.28;23.43;33.46;-4.59;0
-10.63;-10.31;-3.11;31.54;39.98;12.47;0
-10.22;-9.56;-1.79;56.43;22.94;33.39;0
-9;-9.31;-3.13;90.69;-13.21;49.83;0
-8.11;-9.65;-4.38;130.01;-28.69;66.38;0
-7.64;-9.67;-6.15;155.89;-18.62;89.22;0
-6.86;-10.3;-10.39;158.06;-25.07;115.05;0
-6.69;-12;-14.32;149.17;-62.52;135.96;0
-5.56;-13.25;-16.16;133.79;-92.84;165.96;0
-4.03;-15.89;-17.42;101.17;-111.04;186.76;0
-2.59;-19.55;-16.96;40.09;-157.2;178.44;0
2.5;-19.55;-17.5;-11.26;-187.86;156.91;0
1.18;-17.95;-11.74;0.54;-136.23;152.64;0
-1.27;-19.55;-5.33;93.76;-99.16;185.47;0
2;-19.37;-9.3;134.88;-93.26;185.54;0
5.85;-19.55;-13.11;141.83;-67.12;183.83;0
10.53;-19.55;-15.35;128.89;-7.45;168.96;0
8.57;-12.69;-15.04;105.48;-25.3;139.52;0
6.54;-9.25;-14.66;74.43;-12.91;127.13;0
4.86;-7.78;-12.38;58.75;10.73;123.79;0
4.15;-7.18;-11.1;55.88;21.14;114.36;0
3.63;-6.56;-11.35;50.15;19.66;103.34;0
2.28;-5.6;-11.36;36.02;-2.58;91.11;0
1.73;-4.69;-11.26;20.56;-33.39;83.17;0
2.45;-4.41;-11.33;4.85;-65.15;72.45;0
3.81;-4.23;-11.68;-9.76;-89.26;55.95;0
5.07;-3.6;-12.1;-19.99;-104.3;35.11;0
5.72;-2.54;-12.64;-29.44;-110.99;12.47;0
5.31;-1.8;-12.45;-40.32;-116.87;-14.42;0
4.78;-0.71;-11.79;-52.27;-113.81;-37.04;0
5.74;-0.09;-12.05;-71.09;-94.85;-60.08;0
6.01;-0.33;-11.82;-98.9;-68.33;-79.88;0
7.43;-2.27;-10.94;-133.79;-46.44;-96.35;0
7.88;-5.29;-4.7;-158.89;-55.46;-127.49;0
1.23;-10.86;1.33;-128.4;-47.15;-143.82;0
-5.51;-16.37;-1.19;-86.26;-18.96;-156.21;0
-13.7;-19.55;-7.93;-71.42;56.75;-136.82;0
-19.7;-19.55;-10.68;-92.94;151.12;-70.66;0
-19.7;-19.55;-4.74;-81.83;238.7;34.49;0
-13.27;-12.94;-7.19;-37.84;254.27;80.13;0
-3.6;-9.04;-10.41;-32.22;225.81;99.14;0
10.07;-13.98;-13.49;-77.25;128.78;70.57;0
19.52;-19.55;-9.39;-129.45;-24.44;2.59;0
16.73;-19.55;2.42;-84.16;-94.86;-69.15;0
5.51;-14.56;-2.53;53.85;6.92;-82.53;0
0.33;-9.39;-12.11;98.67;35.11;-71.09;0
1.34;-6.14;-18.87;79.53;52.98;-64.24;0
4;-3.19;-21.4;26.03;96.75;-67.08;0
5.69;-2.63;-22.03;-32.61;140.47;-86.7;0
5.33;-4.54;-20.71;-69.15;173.58;-101.82;0
3.18;-7.77;-17.36;-78.26;174;-115.61;0
0.29;-10.09;-14.42;-76.65;135.8;-120.5;0
-2.87;-13.11;-13.13;-72.63;89.51;-116.54;0
-6.48;-15.4;-12.5;-62.92;45.93;-103.63;0
-8.77;-14.29;-11.44;-47.8;17.64;-91.35;0
-9.25;-10.69;-11.29;-40.08;-2.81;-78.22;0
-7.12;-7.02;-11.63;-46.28;-20.84;-64.18;0
-3.65;-5.61;-12.35;-67.27;-30.23;-52.88;0
0.14;-5.77;-11.31;-98.4;-38.88;-48.59;0
2.08;-8.23;-8.86;-112.19;-51.23;-51.8;0
2.86;-11.31;-5.07;-82.31;-35.62;-61.56;0
1.26;-11.38;-6.6;-32.36;5.46;-64.89;0
0.38;-10.37;-10.19;-1.29;29.03;-64.24;0
0.42;-9.71;-13.23;0.23;40.82;-62.19;0
0.21;-9.69;-14.37;-20.35;40.5;-60.46;0
0.51;-10.24;-12.74;-48.73;40.31;-62.56;0
-0.43;-11.36;-8.88;-55.22;50.22;-65.69;0
-3.77;-12.38;-7.11;-21.41;73.46;-63.5;0
-6.72;-12.51;-9.25;17.25;95.65;-61.96;0
-9.27;-11.73;-11.06;33.68;101.04;-60.06;0
-11.72;-10.8;-10.7;27.85;91.35;-47.14;0
-12.78;-10.63;-8.55;14.09;64.77;-22.19;0
-10.86;-11.27;-5.54;19.41;35.42;0.28;0
-10.69;-11.1;-2.85;45.74;25.75;21.86;0
-10.01;-9.91;-1.22;77.14;20.12;44.06;0
-8.75;-9.49;-2.31;114.99;4.9;67.5;0
-7.95;-8.9;-5.54;143.04;-12.76;93.1;0
-6.82;-8.85;-9.19;146.58;-21.55;113.91;0
-7.31;-10.37;-11.59;136.57;-47.74;135.3;0
-7.18;-12.95;-14.91;132.79;-87.52;171.37;0
-6.03;-16.88;-17.27;121.5;-136.26;196.79;0
-4.34;-19.55;-16.98;66.69;-171.11;187.69;0
0.74;-19.55;-17.96;4.89;-211.86;175.48;0
1.62;-19.55;-13.65;-7.53;-151.91;172.7;0
-0.44;-19.55;-2.16;80.35;-92.94;194.99;0
4.5;-19.55;-9.58;147.67;-77.99;192.3;0
6.67;-19.55;-13.16;159.72;-67.2;186.98;0
12.32;-19.55;-17.21;141.66;-12.52;165.02;0
10.95;-12.38;-16.34;113.67;7.26;130.11;0
6.76;-8.14;-14.76;82.37;15.03;114.92;0
3.5;-7.1;-12.65;64.58;40.19;116.48;0
2.51;-7.04;-11.25;58.85;39.67;113.83;0
1.86;-6.23;-11.11;51.96;13.44;103.28;0
1.32;-5.51;-11.11;39.41;-16.97;94.91;0
0.95;-4.87;-11.3;23.75;-54.88;87.72;0
1.56;-4.79;-11.54;7.81;-87.48;81.31;0
2.66;-4.27;-12.18;-6.37;-115.17;68.72;0
4.44;-3.02;-13.09;-15.95;-122.8;54.11;0
5.52;-1.93;-13.69;-24.49;-127.86;27.41;0
5.98;-0.63;-13.67;-37.18;-121.53;0.37;0
8.08;0.23;-14.11;-54.74;-93.92;-26.33;0
9.81;1.35;-14.68;-80.7;-50.08;-58.4;0
7.66;0.4;-14.09;-114.29;-17.78;-90.92;0
5.54;-2.11;-10.67;-148.91;-29.81;-112.49;0
5.19;-4.83;-5.01;-170.03;-79.2;-139.31;0
0.28;-10.5;0.04;-141.96;-96.57;-166.67;0
-7.24;-16.79;-1.12;-86.76;-36.17;-180.24;0
-16.23;-19.55;-5.66;-78.28;68.47;-156.34;0
-19.7;-19.55;-2.46;-77.11;171.19;-64.15;0
-19.7;-19.55;-3.75;-29.95;254.27;48.11;0
-13.27;-8.95;-10.19;-1.01;254.27;112.9;0
1.35;-4.62;-13.07;-29.5;138.77;129.32;0
19.38;-14.53;-15.9;-124.11;37.5;69.31;0
19.52;-19.55;-7.35;-193.66;-191.53;-33.38;0
11.09;-19.55;3.79;-57.24;-54.2;-104.86;0
-0.84;-15.73;-5.4;64.43;42.52;-95.86;0
-2.48;-10.8;-13.24;101.1;38.38;-75.35;0
-0.31;-7.36;-19.84;83.24;25.61;-43.69;0
5.15;-5.24;-22.32;26.88;56.26;-34.65;0
8.59;-4.48;-22.81;-42.7;94.28;-55.74;0
9.44;-5.08;-21.17;-96.58;120.09;-83.69;0
6.88;-6.23;-16.88;-116.92;127.24;-112.54;0
1.51;-9.02;-12.6;-112.72;114.96;-121.02;0
-2.98;-12.99;-10.3;-96.16;96.64;-114.08;0
-6.07;-15.87;-9.4;-66.96;83.63;-102.96;0
-7.46;-13.85;-9.53;-36.95;64.9;-91.56;0
-7.2;-9.51;-9.8;-25.42;43.29;-78.27;0
-5.22;-6.89;-10.99;-35.43;19.85;-64.4;0
-2.85;-5.96;-11.88;-55.2;5.97;-51.88;0
-0.66;-6.61;-11.98;-73.76;-13.01;-52.33;0
-0.61;-8.93;-11.01;-76.99;-19.89;-57.74;0
-1.21;-10.57;-10.4;-64.6;-2.42;-60.62;0
-1.41;-10.72;-10.79;-48.61;17.97;-61.08;0
-0.83;-9.97;-11.26;-37.4;28.2;-58.92;0
0.18;-9.84;-11.8;-35.28;28.83;-55.79;0
1.96;-9.97;-11.52;-36.67;27.84;-60.82;0
2.46;-10.87;-10.8;-34.78;40.64;-71.95;0
-0.76;-12.57;-9.64;-26.18;58.28;-77.88;0
-3.86;-12.26;-9.66;-15.85;70.87;-72.99;0
-6.48;-11.55;-10.2;-8.67;80.69;-66.73;0
-8.55;-11.12;-10.6;-1.37;92.61;-56.89;0
-8.97;-11.02;-9.5;2.17;75.58;-47.53;0
-8.57;-11.46;-8.49;11.59;37.93;-38.95;0
-8.89;-12.16;-6.87;24.05;22.92;-30;0
-10.5;-11.39;-4.78;41.37;26.43;-14.31;0
-11.18;-9.68;-3.72;64.5;27.9;5.6;0
-11.91;-7.83;-3.69;84.41;17.99;32.03;0
-11.87;-7.46;-3.31;101.98;-3.61;63.56;0
-10;-8.6;-2.52;123.82;-6.23;95.64;0
-8.23;-10.53;-4.93;138.32;-7.62;123.8;0
-7.12;-12.38;-10.52;145.62;-43.42;147.01;0
-5.31;-14.31;-14.64;139.92;-78.68;164.29;0
-3.63;-15.89;-16.61;120.27;-114.63;184.92;0
-1.84;-18.55;-17.86;92.86;-153.49;188.5;0
2.09;-19.55;-18.03;41.3;-189.03;168.21;0
4.68;-19.55;-16.16;13.7;-123.65;144.02;0
0.62;-18.08;-5.78;63.19;-67.42;162.7;0
1.96;-18.65;-8.41;125.64;-62.46;176.02;0
2.82;-17.4;-10.64;136.83;-68.23;171.79;0
4.95;-17.17;-14.05;128.58;-51.33;179.09;0
8.69;-19.55;-16.75;107.62;-4.65;157.02;0
7.85;-12.94;-16.15;85.64;8.16;122.92;0
4.17;-8.75;-14.16;64.2;10.58;114.65;0
2.24;-7.88;-12.09;52.14;21.87;121.28;0
2.07;-6.54;-10.72;45.07;6.18;119.47;0
2.52;-6.71;-10.86;35.33;-17.22;105.36;0
1.69;-5.73;-10.9;24.87;-49.86;97.17;0
2;-5.21;-11.11;14.75;-77.72;91.41;0
2.99;-5.14;-11.63;2.3;-106.24;79.5;0
4.43;-4.32;-12.38;-9.38;-124.06;61.91;0
6.12;-3.5;-13.26;-19.2;-128.44;39.89;0
6.02;-2.79;-13.27;-32.02;-136.13;12.15;0
5.81;-1.98;-12.49;-48.85;-130.53;-13.04;0
7.82;-1.06;-12.79;-68.51;-97.18;-39.46;0
8.25;-0.77;-12.69;-97.8;-64.45;-65.81;0
7.88;-2.21;-11.02;-131.69;-40.49;-89.01;0
7.57;-4.76;-4.25;-152.08;-52.17;-113.01;0
2.08;-8.87;-0.55;-123.01;-43.68;-137.5;0
-4.16;-12.53;-2.34;-81.73;-9.55;-151.19;0
-10.68;-15.06;-8.29;-65.84;57.13;-146.62;0
-17.29;-18.18;-11.74;-91.68;130.01;-104.92;0
-19.7;-19.55;-7.13;-102.02;232.33;-24.8;0
-14.41;-14.7;-6.27;-63.38;254.27;33.84;0
-7.12;-7.93;-8.83;-40.32;254.27;69.82;0
3.89;-6.5;-10.78;-73.09;117.1;68.18;0
15.27;-18.96;-10.26;-137.02;-36.65;21.33;0
19.52;-19.55;0.73;-121.15;-120.54;-66.3;0
3.24;-19.55;0.05;29.29;25.14;-91.59;0
-3.87;-13.84;-12.12;102.46;49.61;-80.17;0
-3.6;-6.84;-18.39;99.04;36.71;-43.92;0
1.86;-4.32;-20.96;53.7;54.59;-32.33;0
7.1;-3.67;-22.6;-6.24;93.21;-51.09;0
9.25;-2.64;-21.35;-56.37;113.23;-85.9;0
8.41;-3.83;-18.55;-84.28;114.08;-120.13;0
3.81;-6.46;-15.67;-86.47;100.96;-133.91;0
-0.34;-9.44;-13.23;-77.22;74.87;-127.14;0
-3.52;-13.01;-12.07;-66.23;50.99;-113.93;0
-6.38;-15.2;-11.84;-56.95;28.39;-99.39;0
-7.83;-13.58;-11.44;-53.99;7.42;-89.88;0
-6.96;-10.65;-10.73;-60.27;-9.35;-77.46;0
-4.49;-8.07;-10.22;-70.95;-14.15;-59.9;0
-1.72;-7.28;-9.84;-85.72;-10.17;-45.6;0
0.38;-8.57;-8.6;-92.22;-19.68;-48.24;0
0.76;-10.77;-7.17;-77.11;-14.16;-52.91;0
0.62;-11.43;-7.67;-48.47;10.38;-56.82;0
0.65;-10.66;-9.34;-24.65;31.48;-61.53;0
0.01;-9.67;-11.36;-14.96;45.96;-62.31;0
-0.32;-9.09;-12.78;-16.08;49.57;-61.6;0
-0.27;-9.03;-13.03;-23.27;41.45;-59.58;0
-0.11;-9.97;-12.23;-32.44;33.22;-59.5;0
-1.22;-10.78;-10.23;-38.75;37.59;-62.28;0
-3.59;-11.49;-8.49;-28.92;57.64;-60.45;0
-5.87;-11.79;-8.62;-4.11;83.68;-56.52;0
-7.98;-11.6;-9.67;17.15;97.07;-51.38;0
-9.46;-11.09;-10.09;25.2;82.88;-42.17;0
-11.03;-11.2;-9.27;24.43;56.38;-26.71;0
-12.3;-10.87;-6.31;30.16;48.09;-4.57;0
-13.09;-9.7;-2.32;52.5;44.15;22.39;0
-12.03;-8.72;-1.38;87.14;25.83;48.37;0
-10.38;-8.77;-3.32;120.24;-1.37;74.15;0
-8.77;-9.18;-6.15;137.81;-23.82;99.61;0
-7.8;-10.38;-9.69;137.76;-35.52;123.96;0
-7.68;-12.29;-12;125.76;-63.36;147.51;0
-7.15;-14.2;-13.87;108.44;-106.88;172.82;0
-5.64;-17.89;-16.08;88.35;-184.09;187.12;0
-1.79;-19.55;-17.76;58.8;-246;169.22;0
2;-19.55;-18.17;34.72;-243.92;147.54;0
0.19;-19.3;-12.86;42.73;-149.36;152.83;0
0.28;-19.55;-5.97;97.18;-102.04;181.31;0
