label;acc_x_avg;acc_y_avg;acc_z_avg;gyro_x_avg;gyro_y_avg;gyro_z_avg;acc_x_max;acc_y_max;acc_z_max;gyro_x_max;gyro_y_max;gyro_z_max;acc_x_min;acc_y_min;acc_z_min;gyro_x_min;gyro_y_min;gyro_z_min;acc_x_stdev;acc_y_stdev;acc_z_stdev;gyro_x_stdev;gyro_y_stdev;gyro_z_stdev
1;-2.376114015;-9.592622133;-10.59121369;-0.188906103;3.706068906;-6.585793382;2.867064286;-4.720256127;-3.333542323;47.72808047;86.86429513;141.0607967;-10.50457328;-14.2992606;-16.9208887;-86.73762264;-90.26547537;-120.841587;2.501746536;1.784054544;1.794929195;20.80198026;35.20910625;74.87845793
1;-2.105982423;-9.829894532;-10.46003535;0.251103547;3.753853788;-8.122295139;7.912325955;-5.427941214;-7.067183158;60.6946396;62.42785033;144.5083948;-10.44491234;-15.75539085;-13.24535179;-42.29160008;-44.96119752;-95.42289291;2.84418447;2.351023692;1.047734777;19.63604009;24.3168186;85.09822134
1;-2.168514012;-9.779503332;-10.41412042;-2.004301036;7.566088165;-9.73752529;10.45692824;-4.224549668;-6.201205174;61.4056937;111.1997027;173.7667175;-15.96600494;-16.03424886;-14.07827338;-66.3361099;-86.92497538;-164.4430992;3.615540216;2.793205521;1.31121866;25.24100404;47.30803108;104.6352248
1;-2.337278567;-10.04913532;-10.82293826;0.099752796;-0.348469378;29.93325933;12.16324754;-1.60796689;-5.416385093;69.21623061;118.0955632;186.4084612;-13.10537007;-16.48663674;-15.95776987;-70.26290441;-140.3879473;-133.94512;4.639670361;3.007707811;1.79728767;29.66100334;55.71601632;114.4627849
1;-2.336974007;-9.355101819;-10.28235446;1.285706417;2.371401443;5.864629576;16.60452405;-0.789797367;-3.345525904;51.84891051;159.1730985;177.3075218;-14.33322599;-16.67017013;-17.10907439;-93.2129114;-108.6843449;-123.0166465;4.699693376;3.099974838;2.116943254;22.0706131;50.89910603;102.4185522
1;-2.546755146;-9.712642174;-10.83295028;-2.955608919;4.972717921;-13.61098099;15.52525771;-0.42988666;-2.140068416;63.89600255;169.0308097;168.8071229;-19.27519938;-16.8931777;-19.66688568;-103.1047348;-140.2496792;-151.884635;6.38979729;3.302664219;3.071767766;30.95851753;58.80520672;99.61232195
1;-2.392006014;-10.09353766;-10.61360555;-0.687393344;0.217908952;-16.67595205;12.59692364;-4.03900591;-4.67932977;74.59502446;106.0067134;196.9885718;-14.57652891;-18.54513136;-15.47635203;-52.82750289;-65.0452929;-126.2076915;4.138734212;3.107311278;1.490344699;21.81289316;33.81431249;110.7684231
1;-2.885750895;-9.79873218;-10.71996631;4.602681457;5.561080234;17.46956851;13.61412464;-2.16811587;-1.981338132;70.49141604;132.3089192;206.5475763;-12.48825951;-16.17890982;-16.82941919;-100.3469361;-152.5042166;-123.2050463;4.698356723;3.267867471;2.260389347;27.99550024;52.65231254;115.3704466
1;-1.847920014;-9.589184241;-10.45323554;-3.01611888;3.243593506;13.69734821;18.05609247;-2.563268584;-3.637528027;69.88558566;159.7740791;208.10379;-16.74876205;-19.61991261;-14.64483406;-72.1209499;-104.6837027;-143.3117226;5.083323343;4.218336146;1.865533824;25.86393188;49.33018034;122.8380599
1;-2.920526801;-9.802511238;-10.62811471;-2.776988049;4.359449788;-14.21852953;19.93457867;0.896267666;4.736180753;71.57274148;178.8389532;202.6218976;-16.94726986;-17.24529456;-26.3074709;-150.2521353;-142.9440689;-160.6913302;7.05398951;3.802992901;3.966591466;35.77583584;65.63192178;112.4607646
1;-2.864772175;-9.97742543;-10.72212591;3.177691451;4.198763823;-17.91835192;10.99605464;-3.528737189;-4.946205807;67.8530815;123.8076866;198.8769999;-14.96226583;-17.45624608;-17.76199376;-73.60077901;-68.41464381;-161.9269434;5.004539821;3.064308688;1.794456162;27.05212251;36.89948587;118.4551787
1;-1.666150713;-10.37240816;-10.69641787;0.315054268;-0.887804381;33.8494982;15.13314439;-3.04282726;-0.750308197;71.07374478;90.62271131;200.9193615;-13.64869784;-18.01237389;-20.91835544;-119.9749187;-139.8073547;-162.6949447;5.407535077;3.792641893;2.750644292;29.54715469;49.81633995;124.4960522
1;-2.094518783;-9.838929167;-10.8377342;-5.276765005;7.830614832;-9.457325141;17.13537163;-3.61641437;3.613649549;100.8661983;111.8728841;194.4641055;-18.41631101;-16.75292681;-26.37526503;-133.7018303;-145.174133;-177.3809931;6.758845143;3.257524404;4.504754633;41.50572734;56.79483911;113.643952
1;-2.664932449;-10.16726578;-10.84662096;1.134603212;7.907371233;-25.43720465;16.48372234;-1.31806644;-0.204518623;85.89962822;163.9698245;203.4121374;-15.71188186;-16.89145792;-22.4285632;-113.9621183;-129.3079086;-138.6319033;5.86255051;3.298803488;2.754654804;29.070771;51.05709739;114.7479793
1;-2.187550827;-10.37738413;-10.53371664;1.547091361;-2.374357854;33.67890754;12.06042805;-1.477187954;-1.146285995;73.84784294;124.2007461;187.7021165;-12.25863217;-18.26894049;-17.27807895;-122.7357407;-125.2321496;-156.9411439;5.053452525;3.758392229;2.702637613;33.01766949;49.40468581;118.0448575
1;-2.290514494;-9.792635006;-10.69858195;-4.111795893;5.69017023;-9.06337872;14.77347203;-3.54037984;-0.551747142;69.47376539;109.1860313;189.0268077;-18.31447349;-17.76543131;-22.54660902;-126.2149093;-162.4054398;-179.7457833;6.668370565;3.365742268;3.9437022;39.85217774;63.12697414;110.4081985
1;-1.389443607;-10.34225779;-11.05872219;-2.503076837;6.300030221;-16.77630577;16.43200246;-0.32891475;3.544167339;54.8337697;106.002169;192.537448;-14.34134057;-17.8636914;-21.17955098;-132.4627712;-114.9090594;-166.5149212;6.009545978;3.407183751;3.016254774;29.81511821;55.18718365;117.7146698
1;-3.065853768;-10.04147788;-10.9676823;3.597866171;-0.272994543;24.02925517;15.49705586;1.588644671;4.655136837;87.51886796;156.5543192;191.9155471;-13.24823487;-16.9405648;-27.25960873;-166.5309028;-104.5129879;-177.0835985;5.580956761;3.798367476;3.885993426;37.77406126;54.87663527;122.4642999
1;-2.59365408;-9.370459367;-10.61761004;0.060748508;4.0546171;-2.300930399;17.95905277;-0.885145577;-0.231981933;66.94976625;171.261292;197.1566461;-16.96414957;-16.5915438;-20.93925844;-122.0922833;-107.2257362;-155.4085964;5.783390419;3.61383608;3.222355441;30.02419717;56.74142349;117.0598643
1;-2.451227611;-10.43265751;-10.78236523;-0.61971145;4.220988572;-18.18142;13.64368113;-3.045983373;-0.789299119;72.51913808;179.4484061;218.2351319;-15.19026482;-17.31699381;-20.39295127;-80.58891267;-87.51944569;-182.7672586;5.076354658;3.35042839;2.556643551;25.94957949;48.51456413;120.94973
1;-3.391878601;-9.660819202;-10.84489302;4.509864541;0.994461503;-1.622751193;18.46791084;-2.603869527;-3.322664253;61.3949114;161.5462379;200.6540506;-15.62301559;-16.85195914;-18.61018312;-99.26583143;-95.45215439;-139.0320013;5.587036134;3.510727314;2.222240559;26.35701114;48.93555063;117.3374997
1;-2.708091623;-10.14815261;-10.36062957;2.807157934;-0.115863595;33.78495488;10.19338658;-2.209367522;-5.89142989;58.19751958;132.7765337;202.0546485;-12.65411445;-16.67596171;-15.30365415;-62.80835446;-53.47902812;-121.9595306;3.968916578;4.122244337;1.487032536;22.47243533;35.05276841;118.8823281
1;-2.646937316;-9.482398573;-10.99815193;-1.443215403;10.35483934;-24.13372709;13.35679994;-1.183893073;0.055108435;96.67033367;239.0019726;181.5503654;-13.3044357;-17.42508624;-25.23136286;-97.69633548;-194.4873305;-170.4785941;5.906321121;3.393003155;4.046097829;34.24386896;77.09338131;101.5219686
1;-2.704440659;-10.12377373;-10.89016267;4.231708579;3.84334549;-23.5604867;10.28071723;-3.081349724;4.80692121;91.40526336;139.6226217;217.8674429;-14.60798349;-18.94119496;-28.09100339;-142.8944593;-117.1682587;-191.413214;5.367392177;3.342482354;3.864645832;34.54702485;45.83882488;120.0127702
1;-2.782865795;-10.32982594;-10.72115892;6.276754017;-4.323519822;40.22864695;8.652242207;-2.981138587;-2.550983159;82.71494678;156.6353124;213.5701324;-12.18028998;-16.82501205;-22.67264937;-104.9680346;-72.12582782;-136.6317522;3.972192568;3.388240683;2.536076499;26.31514438;42.62098072;120.6811865
1;-2.240810794;-9.478387476;-10.79013103;0.192868313;9.713207109;-16.26905689;10.2463681;-3.278564275;2.471035768;52.21970566;160.8883865;190.3052406;-14.39671252;-16.42765677;-23.52987114;-126.5731773;-148.0319196;-134.8278173;4.933966575;3.532115097;3.633092804;30.72451421;61.37347892;104.9378486
1;-2.219739776;-10.25513072;-11.17181161;2.438310838;7.539746973;-24.09073216;11.60090215;-3.944394314;1.409593407;85.47933527;135.5198452;202.2237597;-14.99984787;-17.33358302;-27.7252785;-136.7048056;-139.9516738;-150.8448608;4.975183094;3.070706087;3.637925276;33.31981613;50.29128388;115.5104872
1;-2.596840647;-10.47337014;-11.06086342;0.156408138;-5.214789519;29.1935037;13.54793842;-3.858959265;1.545011428;86.5951767;124.0160126;219.1368438;-16.15645791;-17.76305864;-26.66104267;-119.2818226;-124.2888752;-128.8292907;5.785544958;3.586400623;3.77384066;37.20121666;52.18392859;123.6124415
1;-2.472150137;-9.423555584;-10.62384278;-0.901220939;2.949312334;-2.413489458;12.15455578;-0.20770679;6.201905556;83.75931386;124.0003829;188.6927882;-14.93260006;-15.43443331;-26.54991011;-146.6591768;-187.3368668;-162.726117;5.79141085;3.66283841;4.642179092;40.92167886;55.80478913;112.5987351
1;-2.139438634;-10.25589628;-10.93911486;-1.970649501;0.56628994;-18.86518908;15.41928984;-3.126575446;3.670855752;77.05302795;166.7790296;196.3549816;-13.76828859;-17.41597129;-26.20006966;-135.373807;-95.96333564;-156.7350709;5.613065432;3.496218467;3.901443928;33.1775404;45.180152;110.4181144
1;-3.645328006;-9.802927575;-10.6610476;9.692394524;10.05595753;19.45999576;8.806630812;-2.411679839;-7.228649376;84.1641823;120.6635035;187.0429335;-14.02488282;-17.29112577;-17.90551636;-63.26504206;-68.03754519;-157.9357168;3.966860684;4.214953066;2.055665114;31.219402;40.11214585;122.1796549
1;-2.381755808;-9.614188072;-10.44673985;4.287843692;9.287582826;0.576009729;10.63221929;-1.783545751;-0.422150905;84.98769806;159.329214;192.6516737;-14.38074746;-17.462107;-20.44568456;-116.4165211;-108.0489721;-160.3505516;4.706278998;4.194558646;2.676303894;28.10745235;54.3695137;115.5774154
1;-2.321088017;-9.879770165;-10.89792972;-2.758492544;-2.561343558;-8.742658638;18.80349248;-0.895778792;5.057498061;66.04786263;104.6418959;186.3345971;-18.98168806;-16.58873953;-26.62580232;-147.798865;-163.422781;-141.032026;6.974486992;3.365424804;4.583015673;36.48096292;56.64511482;103.0483776
1;-3.387448772;-9.803731015;-10.60281589;9.777922699;4.451419199;-14.22455015;19.60465658;-0.897440543;6.023151616;84.86703649;179.8089038;219.7591239;-16.36280673;-18.69694581;-26.16195864;-148.5268856;-163.7333868;-164.5976892;5.967868669;4.077246662;3.783970858;35.83347797;63.06879309;123.0509361
1;-2.461858848;-10.39384339;-10.74926243;0.053136479;-3.57641772;29.05050635;16.70993502;-3.015149664;3.145808969;75.15309165;134.2204164;193.6736556;-15.42931535;-17.25125488;-24.56102353;-128.3353857;-125.3959072;-149.2952179;5.631929574;3.596489489;3.705005408;31.5052134;54.39245268;121.0428889
1;-2.837526379;-9.236697031;-10.5785197;2.723235849;8.975152327;-8.062951484;11.26558051;-2.79815351;0.471893131;70.65356612;164.0131953;191.5425254;-13.78190609;-16.43019572;-24.70573699;-124.8997734;-90.69362983;-154.3774687;5.058477289;3.74604981;4.035424665;33.48121153;53.63183017;105.2964214
1;-2.660894043;-10.3990847;-10.8191025;0.760332073;3.888361328;-20.70321649;12.66934339;-2.508062269;-8.227326896;73.75464494;132.0109103;200.1079842;-16.51501161;-17.69918115;-15.23528953;-67.37921434;-73.46751436;-144.0555647;4.205501546;3.900689819;1.415498436;23.24194557;40.5043049;124.3784227
1;-3.522829746;-9.389161214;-10.69601702;6.191198237;4.369236567;8.266844012;19.57426861;-2.399454241;-0.028256777;78.70119072;199.4335056;200.2771764;-17.55206573;-16.0616938;-23.39998557;-119.938884;-121.8433273;-157.9880766;5.638969463;4.076257511;2.98817036;33.08907701;64.1592198;122.0751349
1;-2.133011191;-10.28155111;-10.56757127;4.202458654;0.818938883;22.18706075;16.53368407;-1.052089411;-4.840375456;45.39987709;188.590535;196.3892849;-16.9874315;-18.4223207;-18.88790936;-82.57340418;-111.8539932;-153.2089574;5.265961145;4.762755929;2.124025109;22.45005929;59.0825466;127.0086097
1;-3.048427923;-9.413922969;-10.90889717;0.928689199;10.03533628;-13.27643518;16.6854187;-2.184884742;3.328232725;68.5133867;208.0792243;204.0192648;-14.91311037;-16.93986828;-26.46342166;-143.1825662;-129.5516493;-168.453098;6.568573124;4.303827929;4.379091299;38.56134986;62.20952515;116.9280794
1;-2.727918761;-10.03554747;-10.73178714;2.573748225;3.600893943;-27.27189218;15.80159525;-2.152801273;4.026948062;82.87829593;152.0228084;195.2901179;-16.28348568;-16.29824803;-25.26512767;-133.9731128;-144.6612269;-171.8073047;5.202723208;3.544880147;3.583456541;33.01857428;53.72032825;116.1770187
1;-2.873178746;-10.49955468;-11.05263046;7.087794951;-4.309165397;36.05860614;16.27585009;-3.603424617;0.907649199;80.1621079;142.2953167;224.8047554;-14.14481139;-17.93061055;-27.73410514;-122.3813791;-133.7369799;-158.698474;5.955234294;3.891155192;3.819006207;34.44084739;58.50720627;131.2473756
1;-2.480593012;-9.522598728;-10.64667738;1.35608984;10.59283104;-7.867581235;15.02231933;-2.428697977;2.173557443;95.61879379;145.437439;217.4515928;-16.75702567;-17.30132788;-27.59557133;-130.2027738;-127.8487885;-182.987977;6.404973078;3.79365436;4.690630168;39.06089203;59.49262594;118.0003427
1;-2.155491497;-10.30799914;-10.8943934;1.028344251;-0.375852763;-20.33855075;14.05432991;-2.458056974;5.499222785;84.07645691;191.750511;213.5421028;-19.20438699;-17.77391338;-28.64313437;-173.456548;-139.7064615;-199.088337;5.851357248;3.756427715;4.161667442;36.03193885;59.08322007;120.2159546
1;-3.109451702;-10.09894947;-10.9786362;9.151482568;0.732394491;18.28163961;11.0898636;-2.691579491;0.810532624;78.61538048;149.6405286;220.3505489;-15.96254698;-18.68957476;-23.54850507;-115.8336647;-173.6145435;-165.8383952;5.42148762;3.885865436;3.268491481;30.51155543;51.69441144;125.8778117
1;-2.301454754;-9.605102164;-10.89792401;1.001648943;8.301845882;-0.935717596;13.97242028;-1.839865378;4.346173704;82.92054679;177.9872642;193.4151656;-19.00783646;-18.96785142;-28.75325734;-172.4386274;-171.2114215;-191.2795973;5.829695858;4.030039589;4.668687988;39.15373677;64.93005072;118.0868831
1;-2.128362448;-10.2575828;-10.96203556;1.293054231;1.939351692;-16.79657791;16.26071105;-1.485294307;2.738289703;79.77225305;133.3791934;205.3433252;-12.15920906;-17.66552321;-25.74220445;-132.4377907;-144.3636168;-154.2649587;5.639083011;3.67212094;3.622754252;31.77717925;53.81275321;108.6721415
1;-3.664137548;-9.565556092;-10.80571519;7.195999483;-3.204040129;1.6336059;18.69285836;-1.209382125;1.104049394;93.04407997;189.586249;191.4377434;-15.04029599;-15.99116962;-27.58820412;-160.9225632;-142.4531194;-176.0364102;5.71695094;3.79907201;3.368466044;36.52417655;63.17057052;124.7489402
1;-1.963282004;-10.5720604;-10.62417345;7.298479913;5.827184527;27.08706557;8.482858351;-2.152342515;-3.035636741;62.42649847;126.1036779;228.6981598;-18.37517758;-18.6653533;-20.48179708;-97.42665288;-49.46964618;-152.3870008;4.406264812;4.397122306;2.126775378;22.97308444;33.01165343;138.7403009
1;-2.860369426;-9.697545449;-10.88826935;-3.420493497;10.25066603;-14.17467816;10.7824587;-1.384566106;1.885635333;70.30546592;152.6459053;194.4943307;-19.12536825;-16.55271902;-28.15545748;-153.824367;-119.1346721;-200.9183133;5.44008922;3.817346424;4.576610888;40.60945159;59.12984659;113.7464527
1;-2.297268845;-10.31999207;-11.08136952;4.849128974;2.374732091;-21.68301333;14.20564431;-2.09800432;4.604468756;69.67676179;161.2533115;217.9107864;-14.16386639;-17.58329641;-28.66893341;-143.6602802;-97.4240508;-169.8016847;4.560203717;3.786086811;3.704440717;32.05751904;48.08340979;120.4437036
1;-3.368577947;-9.862921838;-10.94383037;6.237036901;0.402484254;18.10418549;13.90911055;-2.196844728;-2.253666706;68.52570087;123.3019134;193.6772834;-13.73227478;-16.53338959;-24.32900555;-110.5624272;-104.8332295;-162.9477705;5.219994491;3.899452148;2.895016522;31.06261595;50.44827928;118.9962984
1;-1.922589987;-9.697994783;-10.67728188;2.204405994;14.09325571;4.373433842;10.86296663;-2.468915824;5.409566357;63.62314533;129.1200899;195.1472761;-17.45507804;-16.54057676;-26.30020551;-153.6919449;-128.6422799;-157.4830116;4.726360392;3.941557409;3.586297569;33.65492431;49.77505157;110.5136098
1;-2.457559854;-10.19556876;-10.76324528;0.047563677;-3.686003283;-19.76332108;12.40215628;-2.426175919;3.054489824;65.98485501;173.948966;195.9951193;-15.22655975;-16.85837271;-26.37737629;-155.3418467;-136.1359647;-166.7962586;5.32193312;4.034832831;3.366425321;35.29902484;53.98635227;109.6460174
1;-2.664098168;-9.328587927;-10.00638749;6.923320285;10.27863266;12.64661633;2.287295309;-2.426963095;-0.269673468;68.6009788;95.48511675;149.5119975;-10.85260053;-18.0323238;-16.58369204;-97.28828728;-59.35566406;-115.4576411;2.632412153;2.879675005;2.293822334;28.94872507;36.33843471;68.50919763
2;-2.142317729;-9.471266285;-10.2638103;0.358894366;-1.812494059;2.862443075;2.803782479;-7.807292827;-6.207982107;25.00881083;54.20165582;131.3672436;-8.218770982;-12.16552289;-13.10121547;-31.70259932;-51.34659592;-76.20346273;2.21427615;0.814931505;1.137153809;12.70312031;22.6049447;44.39080805
2;-1.648990468;-9.380843794;-10.75391126;-4.144324203;0.080429585;-20.75248485;1.805333849;-7.807292827;-6.207982107;22.40104301;54.20165582;0.93572054;-8.218770982;-11.00158254;-13.44867003;-27.57495302;-51.34659592;-76.20346273;2.012058615;0.711292349;1.309638329;9.937298298;23.12798615;14.35332066
2;-1.144926179;-9.624525287;-11.09656968;0.83990216;2.075291739;10.72404236;0.614984008;-8.211350745;-8.502076911;51.39030378;45.05017216;138.1188682;-4.945748762;-12.28763148;-13.90610864;-45.98475892;-43.67286745;-31.82756056;1.137189186;0.749503193;1.085249047;18.39358045;19.48607285;46.5815191
2;-2.260320933;-9.491579317;-10.6369339;-0.376685623;-3.555378628;4.411690804;-0.363439914;-6.961508439;-7.049145293;51.39030378;73.2379111;138.1188682;-7.478504872;-12.28763148;-14.00044499;-45.98475892;-73.03716552;-77.71198067;1.6903739;1.256675302;1.473557613;20.25147014;34.00400677;55.83045297
2;-1.766479347;-9.739501582;-10.62999103;-0.091499158;1.799383055;-7.991868915;4.931854634;-7.356293005;-7.383785592;35.10321589;54.57168154;72.80671208;-8.927914747;-14.33775493;-14.37676734;-42.35353415;-68.69842236;-83.29129623;2.278213427;1.642815309;1.371580893;16.73157723;29.70604288;49.68750774
2;-2.369169666;-9.290499519;-10.53558356;4.35325634;8.786279555;-1.334904635;4.370031866;-4.0611385;-3.921579407;73.07893109;82.28045764;159.0759642;-8.311914663;-17.37208682;-20.7789369;-63.78734305;-117.1750299;-99.80520371;2.950721574;3.427101435;2.571940684;31.22329911;40.92012008;81.21256703
2;-2.130084181;-9.909911389;-10.87545903;-0.915091372;3.045033747;8.141851655;8.8210315;-2.534719955;-3.353760284;74.39677137;84.66472962;169.1733476;-10.43527568;-15.30422349;-18.80309782;-66.48788016;-169.8726794;-108.6122315;3.440977899;3.099085746;2.41183441;34.14243277;53.40870932;86.99002053
2;-1.379595693;-10.14047042;-10.59743716;-2.932041324;0.198025022;21.94799676;15.8013358;-1.471259012;-2.285041446;63.33354952;95.06721962;150.1758235;-14.25032362;-17.82491852;-19.16416892;-90.8331026;-186.4804897;-111.1732141;4.921845063;3.26457841;2.556215346;33.00193475;56.99625873;89.80721217
2;-2.379922845;-9.311063056;-10.96664006;-0.869322877;8.261036418;-8.880610854;12.7817508;-0.961107051;-2.4273103;46.68055588;95.54643639;115.2247929;-14.61922983;-18.0307993;-19.52210053;-76.24677472;-171.9883618;-114.820857;5.012047132;3.799623806;2.713576017;29.36987505;61.00450681;75.44015092
2;-1.485112992;-9.678798579;-10.62954834;-4.29658478;1.051745354;-8.475992402;14.79868216;-1.139847469;-4.170788835;84.11923144;97.52280818;158.2697056;-14.59737398;-18.14961173;-16.12114581;-68.42924006;-115.2616978;-122.8135102;6.407936399;3.640737004;2.442212208;34.30148858;53.75185395;86.33170675
2;-2.005066732;-10.15318869;-10.79364385;-1.603248008;8.614722228;-18.16601387;13.8414512;-0.501140462;-3.120234471;86.5357322;173.7162791;176.2456794;-13.23837574;-17.35139268;-17.94966022;-69.3784258;-196.574643;-119.4149809;5.52413987;3.158201264;2.637887439;37.94088632;65.54848498;94.35659843
2;-2.163566183;-9.47584327;-10.85874543;1.171619036;5.982100379;15.83221074;11.33308333;-2.229715669;-3.082282309;84.54511769;128.9275179;173.5403123;-19.72808552;-18.07198762;-21.96997756;-82.77632034;-128.0194165;-146.0818143;5.368934711;3.870243998;2.841336473;38.95122358;64.70841825;100.1921864
2;-2.289641446;-10.23111121;-10.61578485;-5.584441139;-3.938101998;17.7696811;17.16313981;-1.799375782;-5.152397075;77.39075089;122.2689486;163.8108333;-13.87313269;-16.12703944;-16.66780576;-67.58617198;-114.7964221;-121.0459148;4.612098219;3.508561727;2.420776576;34.40683113;48.43998549;94.92573596
2;-2.391246682;-9.459993862;-10.61711306;-1.360162554;4.782025501;-4.440187311;17.88003579;0.021909942;-4.336194804;51.42571187;123.9113059;113.7225233;-18.55435309;-17.07459671;-18.73411016;-69.90167463;-158.1178041;-132.3750145;5.36252688;3.55302751;2.482071553;27.98224295;54.11869985;74.90935239
2;-2.355497267;-9.434188252;-10.78234467;-6.266791352;2.253521317;-6.760853;15.02759606;-1.157056877;-3.943101913;57.36465915;117.8078265;120.6975382;-14.80561072;-16.18706768;-18.81496319;-79.34631759;-122.7440085;-106.8223069;4.488481805;3.418425832;2.499387651;35.40855711;53.90782142;73.5982246
2;-1.433834965;-10.17028545;-10.77335023;-0.768544655;8.262199952;-12.79670916;12.68295796;-1.464437078;-4.580164217;57.00270564;114.5332701;141.0322149;-10.49335757;-16.50662408;-14.99027211;-75.0164004;-144.5926005;-119.3578713;4.5194917;3.105373919;2.166422528;30.18875234;48.91903553;86.52732144
2;-2.253717314;-9.726932304;-10.63104321;1.41711236;8.042728264;-7.952574145;13.63558214;0.330508386;-2.305147295;64.20524489;119.4598138;149.2728503;-11.12532108;-17.57281023;-18.76825719;-82.55724717;-125.190085;-121.4135097;4.716135138;3.310772026;2.433395386;34.60244084;46.33311482;85.32302937
2;-1.545986212;-10.20902297;-10.96049596;-2.357663688;6.463078778;21.86172132;14.46889715;0.394115616;-2.217722069;73.76775385;118.1774252;173.9686827;-16.75992993;-17.20621124;-20.9338912;-92.16462023;-158.7974897;-147.4458879;5.558255499;3.28928559;2.641322285;36.1587311;55.04183506;106.5288491
2;-1.170154862;-10.02795999;-10.57693754;-5.09910502;2.552723682;4.42498645;12.77281418;-2.028847609;-2.468863374;65.21577401;97.54807588;187.963516;-17.84833999;-18.3885724;-18.51603285;-93.25655218;-133.1094262;-159.5682537;5.727703984;3.430678333;2.57050677;31.79375055;48.35735108;111.8938868
2;-1.777564597;-10.11097891;-10.90692861;-8.262570622;-1.04749483;-13.58828079;14.33855502;1.358652726;-4.039661494;62.96668877;157.5341943;209.3662956;-19.62357853;-16.84764555;-21.14035296;-98.948552;-174.3664217;-135.2670211;5.609415459;3.277224719;3.20216633;34.35895863;62.51856547;108.9564547
2;-2.185002138;-9.918937767;-11.0802797;5.627998592;5.783192516;-7.310264353;10.18613886;-0.593123912;-5.237359296;57.3202671;156.9732186;186.4218406;-11.65074829;-16.18009748;-15.94130886;-73.19764785;-114.6092241;-152.6760212;4.437615437;3.536409788;2.13933794;28.3499435;57.8005895;102.0197679
2;-0.84427198;-10.51696572;-10.82519449;-5.789225449;2.015453852;31.29870334;15.66770893;-0.985344495;-3.461748529;51.5855186;111.1625462;198.8088304;-20.69644672;-18.37995055;-19.60008657;-76.70970765;-115.9278533;-151.8972037;6.304605139;3.519169547;2.589096711;27.98622117;49.8872091;117.714897
2;-1.59190866;-10.1833723;-10.68084851;-6.741656199;3.051851586;-9.704611836;18.28645827;-3.061496971;-0.635052345;111.5855637;136.3229209;206.9121995;-21.38526442;-18.27898677;-25.48711859;-143.2313591;-129.6728313;-203.2532768;8.014297738;3.249963919;4.313136224;44.19867481;58.63259292;111.312377
2;-1.172493978;-10.51912248;-10.93426829;-0.627721021;8.872845638;-22.01059665;12.12525805;-2.246291037;0.134961036;88.96478109;104.2084921;179.6645035;-18.4915204;-17.14736126;-24.89896392;-147.8299102;-185.1830645;-152.4719175;5.789087647;3.335676321;3.123697974;32.90454126;54.04646807;103.6859185
2;-2.258000848;-10.09552277;-10.98107329;-0.464525008;0.842199926;27.28271954;8.7733503;-2.156166817;-4.307367188;72.95269827;112.5691227;183.5296372;-13.34785612;-16.97498717;-19.8834957;-109.2792662;-168.0599929;-120.7396883;4.823975099;3.49963593;2.517095662;36.6329161;53.49177663;107.9029292
2;-1.974795204;-9.628792844;-10.69033875;-0.509545717;5.625182247;-5.589043884;11.13154881;-1.516971196;-1.614159594;76.73165835;169.5222474;155.5770197;-13.79118238;-16.57378538;-18.80302971;-83.39444339;-172.6127082;-131.5023395;5.132226972;3.31407897;2.829950812;32.37047893;63.41187322;92.38740874
2;-0.971922815;-10.1858131;-10.7782536;-5.493137449;0.268762108;-12.17574265;12.91092906;-1.425658722;-4.774473946;57.82999525;110.1773032;158.0520632;-12.4591767;-16.88600517;-16.70554336;-69.61563152;-112.5208104;-110.4319856;5.663764709;3.102089999;2.54356053;32.99101287;57.25482507;87.77236958
2;-2.267769821;-10.061691;-11.05240722;2.332775281;11.08312558;-9.360603603;10.12189633;-4.750914984;-6.728376655;54.23734845;173.3791188;166.9410006;-11.10172067;-16.73763959;-17.20398894;-59.95750004;-132.460341;-122.3482666;4.447789699;3.226096019;1.977232063;30.04033575;61.51122675;98.81905463
2;-1.623480387;-10.65764708;-11.36168656;-3.012485149;-2.018254709;34.43068899;14.7929884;-0.949197692;-0.109825999;84.56903475;160.1173213;221.6794192;-11.49288613;-19.68426843;-25.2285318;-120.5186453;-116.9801937;-180.2717363;5.600931999;4.314538497;3.356181355;34.58834675;63.01929292;118.1024024
2;-1.740673116;-10.03726465;-11.09242762;-0.029175427;2.466888284;-17.2600967;16.92368442;-1.391647023;2.638305959;105.0414223;161.4551302;195.8158594;-21.31939186;-16.80405951;-27.15015531;-152.1313761;-211.4068232;-191.2408062;7.874689647;4.584658754;4.645677257;43.2497993;72.50689422;107.3122711
2;-2.309680841;-10.03074018;-10.9999681;3.922190554;10.42002487;-12.0641382;11.43817436;-2.286784175;-4.531801593;69.91892971;157.5905294;196.9593334;-20.47956956;-16.21426754;-21.05484714;-103.5650604;-161.6770232;-159.9207118;6.052729112;3.959714901;2.503114819;36.23544283;69.56769287;108.0758091
2;-1.700283079;-10.63130366;-10.81739637;-7.938797576;-2.919239623;25.69816896;16.4376187;-2.409876802;-2.402096721;107.8838802;229.2238109;204.3135033;-14.33130714;-19.04616751;-26.40054886;-146.0132069;-164.6075602;-151.6798334;5.385758182;4.427348858;3.533754409;43.13330057;72.30215529;115.7282833
2;-2.315162126;-9.794813932;-11.03966784;-5.994249978;-1.001498531;-9.663993735;13.98747985;1.13892945;-0.890755886;58.59986827;134.9458686;199.9255607;-17.24045514;-15.85275915;-20.21811986;-92.32723891;-153.3053815;-148.7151352;6.625558728;4.135249914;3.550618806;35.66032545;65.51594908;105.4981509
2;-1.839867299;-9.871398959;-11.03526929;-2.307489134;13.16217072;-13.56612905;15.40737083;-5.262404855;-4.719385123;48.56864136;153.1576802;150.9694457;-14.87157318;-18.54101198;-16.38652908;-65.07112854;-77.05512589;-171.0379253;5.256533909;3.011081656;2.424931986;27.65836471;50.59512279;97.96608168
2;-2.537495632;-10.06143765;-10.99330423;4.093870392;9.726510397;-4.305131805;16.97882304;-0.588422455;-4.847525851;62.41301636;140.1722163;216.1346684;-16.02217888;-16.40112814;-15.97050836;-76.73320694;-127.6103549;-182.0060991;6.542939848;3.663024082;2.090627419;32.18163772;60.4397877;114.8080056
2;-1.542304609;-10.72090744;-10.97885515;-3.286619194;-3.346576362;34.8279031;15.66688592;-0.563901026;-0.826158273;62.07287726;102.07062;207.3241614;-15.62986384;-17.56953785;-21.17386953;-94.19869242;-159.1008877;-158.6749306;6.043368792;3.802361232;3.206813752;31.09299003;54.92297769;125.6443265
2;-1.971610471;-9.618773223;-10.92012843;-5.773734067;-2.739484064;-14.22173041;15.25130329;-0.545020256;-1.922943498;93.62340008;87.6046648;205.5102648;-19.75756813;-19.36887024;-24.15158554;-120.6888115;-155.5303837;-181.2178795;7.338201474;4.613607306;3.857416492;40.46042161;59.01039974;106.1279819
2;-1.9282476;-10.48812992;-10.91399951;2.288539171;12.96022177;-21.15214391;16.38521297;-0.309892018;1.163717657;117.9149604;81.05631081;203.3497377;-19.51572653;-19.67215091;-26.37133119;-109.5285492;-141.1807244;-186.2602721;6.74885987;5.191193364;3.643444715;36.45720645;48.22022822;107.8466639
2;-0.868196083;-10.70700191;-10.73882973;-4.179007646;-3.243296029;27.36584902;15.10764945;0.224380222;6.475178751;145.8751642;150.1566673;202.9842636;-21.28687048;-19.98292695;-29.12374121;-141.7699787;-124.0111128;-211.0104421;7.187854894;5.420691784;4.661293871;42.81106399;56.71106906;125.041107
2;-2.034584302;-10.03702185;-11.05384473;-5.217093783;8.207099059;-10.31033777;20.59127422;2.566890093;4.972115715;107.9184875;137.7525288;212.2579122;-20.84068807;-19.06027097;-26.08483069;-106.1870906;-141.9239387;-229.1672892;8.910024265;6.29464391;4.882263997;44.62746462;74.8339435;114.4489983
2;-1.87110199;-10.61264324;-10.95668646;1.080375199;12.55512635;-1.029838461;11.18164444;0.875892751;2.505510567;101.4635492;129.174788;186.3108145;-20.76593106;-19.51868226;-26.83766499;-127.0646441;-181.3104673;-181.0272888;6.473559385;6.047526598;4.020284242;36.01404135;61.08033383;119.9544385
2;-1.783163541;-9.530765045;-10.78441417;-7.70637206;0.191708829;3.504183551;15.6338633;-0.191264654;0.992392216;88.84425239;175.7631896;196.3635965;-20.68581;-19.69290744;-25.66163039;-143.1599295;-215.1718017;-177.5812103;7.313305925;5.159197156;4.532197208;43.21209253;73.89149581;108.3974772
2;-2.2044699;-10.39524549;-11.14367807;5.781819974;7.939788732;-26.65659197;18.2401295;1.228362441;-0.648803732;97.73207407;136.5492233;192.6132478;-17.86137147;-19.36824907;-26.09355843;-109.316759;-177.3536637;-194.1454597;7.628634295;5.826045828;3.759243512;36.99371716;68.73156992;116.3847213
2;-0.950425177;-10.87887497;-10.62697536;-0.008878664;1.083311879;30.20296067;12.19901224;0.375627005;3.966875695;132.9457845;88.55728664;186.4196821;-18.93785563;-19.85172463;-28.09747735;-153.9495236;-172.0267396;-183.9867328;6.045770309;5.343374727;4.430945402;40.06678455;50.34157246;121.178012
2;-1.637089181;-10.49102707;-11.0038285;-2.903791944;4.346638505;-21.01863774;14.8067502;-0.196794528;3.340471103;126.1495289;135.678244;202.4499759;-20.310294;-19.77164557;-28.45329138;-162.3787257;-190.3946534;-191.3464309;7.731734198;5.843264401;5.366402158;48.85717466;71.49615058;123.5500482
2;-1.841054933;-9.325812292;-10.72141329;6.088340258;2.523427946;12.54865831;22.43191712;0.6584562;-1.070427353;55.35538959;101.1438465;208.8221506;-18.46020912;-19.93784334;-21.18000016;-61.91101312;-150.4535573;-177.2132829;7.340886914;6.057160226;3.126812733;28.7503907;59.75816258;121.4333157
2;-1.85632328;-9.751637062;-10.48348369;-0.708266726;6.499611504;2.630848642;10.41304845;1.884867511;-5.804510084;80.83372889;113.0794644;187.6722505;-16.60034401;-19.72687707;-17.64847191;-73.6446174;-116.2320579;-180.0268528;6.59456534;6.313825338;2.48320974;29.82336737;64.11086818;113.2364319
2;-0.890489325;-9.32352275;-10.92015779;-4.31349477;-6.062801273;-2.761876167;21.52477496;1.88629364;1.046182234;68.49384477;173.613389;200.5724842;-17.61337376;-19.79172874;-23.31326601;-117.3375553;-204.0577425;-175.4011047;8.067803139;6.652780779;4.300042459;36.85694414;68.52647885;111.4957383
2;-2.759117086;-9.231295636;-10.80326843;4.362097063;8.148143825;-9.428610228;10.60005223;1.770881132;-0.927188621;133.2186109;114.8115892;203.0210339;-20.95407663;-20.51338168;-28.69874709;-150.2088774;-103.9103163;-196.0289891;6.427383469;6.820791663;3.846107328;39.60346202;52.02066183;124.9910409
2;-0.857924275;-11.00340352;-10.58244391;4.930150813;8.628591102;14.84032215;11.70282175;0.938197133;-1.396125069;114.225983;136.132595;207.8446313;-16.32119094;-19.64263415;-29.84577368;-88.66142909;-154.1763111;-217.587498;6.125818265;6.680673254;4.280245597;34.3688166;58.30896137;131.0712234
2;-1.513640904;-9.889256042;-10.93395685;-1.027169682;-1.605046886;-5.514359311;19.43609523;1.653800033;2.229967471;98.76855095;111.7359062;198.0636558;-15.56392298;-19.65758655;-26.84488393;-147.7421205;-173.814828;-175.7647218;7.827612748;5.805592003;4.673873983;43.12403434;67.52681391;115.2487854
2;-2.6971962;-9.510169536;-10.98157879;4.920309106;5.805826624;-6.77493945;20.65307628;0.90895294;-0.491702889;103.3454909;191.2782749;192.7767088;-20.90950104;-19.58988574;-25.92078146;-113.6972434;-142.6959154;-187.5157364;7.888902069;6.205483577;3.884331581;35.9157441;68.53109555;123.2778951
2;-1.356011045;-10.69431705;-10.85804702;-0.457231677;11.58997909;14.0450645;15.76535279;1.733261466;-2.001681854;104.8713403;193.9584042;196.6767631;-16.49303263;-19.82492523;-27.69159447;-139.1801384;-146.802186;-194.4867064;6.888868808;6.611698604;4.309289309;39.47517321;74.62967591;125.8533408
2;-1.049844893;-10.862117;-11.26557355;-2.003233161;3.48581833;-10.8486439;20.86717206;0.295251374;1.547578281;96.90867552;141.9075999;202.1650023;-15.60113339;-19.70905212;-27.74751976;-117.0663328;-195.2642492;-221.8887879;7.278081118;5.986142783;4.520830548;40.68775363;71.63686664;116.4950461
2;-3.109860849;-9.914987699;-10.99176206;2.666499847;1.40356198;7.610276793;11.14885858;0.947162103;1.75801067;137.981829;151.5313861;208.6077929;-21.25679262;-19.70752989;-27.81176364;-182.1941457;-135.2627294;-226.4439723;7.061665114;6.809255461;4.163136814;48.28891029;71.7894301;134.0738885
2;-1.593182808;-9.794410916;-10.94179115;-2.788699167;5.423703309;4.433573599;10.51259307;1.765732277;3.342843776;124.9329043;205.0275368;195.0854473;-18.25806045;-19.81408392;-29.62733453;-153.7447876;-219.849287;-192.6954773;6.838612303;6.62803543;5.24954145;44.10888401;78.60167824;122.1055737
2;-0.672857382;-11.18773917;-11.16602543;2.869309962;10.22740105;-24.12890068;19.77315359;1.588080653;-0.013482699;104.8535852;111.1791228;197.7411008;-21.34270328;-19.64045803;-24.83054759;-111.5608881;-119.6758669;-220.5435586;8.17450622;6.309676727;4.521104276;37.60369743;58.21922988;130.4251629
2;-2.245281122;-10.45545427;-10.82527905;0.884835623;-1.490635244;29.55137171;18.55177593;1.883384395;3.192967002;96.19754985;162.4604585;206.3761594;-21.38121174;-19.86171561;-27.30575617;-141.390342;-207.541788;-202.0864006;7.56539258;7.094100235;4.113068066;40.19721736;70.21675179;130.4491
2;-1.140070846;-9.514050536;-9.961685562;5.071748695;7.623975396;-6.330204477;10.72010649;0.951956625;5.060946894;93.50069202;123.1892633;181.3807558;-12.49607298;-19.39919824;-28.59179949;-133.8217507;-131.87574;-173.7841128;5.396142035;5.77413121;4.46857119;37.00979866;56.16852655;96.02567139
2;-2.547926024;-9.203680496;-9.377357855;6.827663073;14.8690029;4.420897336;1.462051617;-7.390880054;-5.554122734;43.19135253;146.3305413;68.74295839;-6.511716687;-11.73773241;-12.16215229;-35.97705374;-88.1859157;-57.65356701;1.846292255;0.926959665;1.947214818;17.00592913;48.45387447;35.95443008
0;-1.617273364;-9.431014361;-8.892030932;-13.34384258;0.090475823;6.427677536;0.568192011;-7.158881424;-6.379511765;20.71193004;74.97245471;134.1357324;-6.316379082;-13.23356144;-12.09368738;-65.92926128;-46.46798838;-72.81734185;1.650221985;1.164313133;1.282104657;19.04060751;23.8431758;45.73212925
0;-1.499041678;-9.56386721;-10.89741039;-1.444489196;-10.25550293;-1.197972275;0.576946292;-8.605475901;-8.865654447;9.796153866;52.02839595;44.06770613;-5.079875439;-12.03665123;-13.39041939;-21.52473781;-69.73617571;-49.64772637;1.088532372;0.571197589;0.972780364;8.247125968;25.27369631;19.64972463
0;-0.291955409;-9.634021562;-10.61533522;-0.058402376;4.046958564;-5.530155285;1.587109608;-8.718470368;-9.788597676;6.392162461;37.22258247;5.59618809;-3.67716947;-10.08816517;-11.07563734;-3.826645112;-5.879579608;-48.52846444;0.641776307;0.239744061;0.205001768;2.304535788;8.466543863;14.12110452
0;-0.480632201;-9.711319013;-10.31416384;0.865796803;-5.021400146;10.40562826;2.696190438;-8.711038707;-8.432395796;16.32163683;26.31669866;80.43305147;-2.631568761;-11.86577393;-11.78589856;-12.69152437;-28.77961779;-12.64382385;0.903179838;0.454835215;0.465520539;4.080727051;10.13187411;22.23275067
0;-0.928131725;-9.536387662;-10.8157637;-2.385400765;9.799571497;-16.43567427;2.197891615;-8.360297109;-8.244444277;6.965016299;53.91770945;22.17085568;-8.161192118;-10.76603382;-12.10109197;-13.1112298;-31.79723396;-43.11046391;1.968106549;0.488810463;0.735031447;3.919827358;21.53774461;11.77975219
0;-1.005864783;-9.502278392;-10.28497027;2.19417735;-7.533204574;15.59456654;2.306902632;-7.951985037;-8.443609655;38.30793426;32.92794671;125.4078346;-4.354747786;-11.86235875;-12.33064968;-21.12479241;-46.29580476;-47.55596993;1.797898686;0.777034251;0.950954948;13.05279538;18.32108801;41.35829335
0;-0.194650133;-9.707375796;-10.82448631;-1.346033499;7.597384704;-17.31863205;0.706869868;-9.061592764;-8.989483057;7.29360787;37.27933725;-7.420551126;-4.70518891;-10.53209643;-11.82091223;-7.308969133;-41.36656862;-44.12534976;1.037574036;0.292707364;0.509240658;3.033379451;11.80772802;8.3055378
0;-1.953520325;-9.375090974;-10.05721926;1.760066842;-0.059411361;18.38296905;1.71010431;-8.264389002;-8.679997928;26.97041738;53.16858741;105.4849724;-9.676999085;-11.59290467;-11.38656335;-16.71013223;-43.29166366;-62.27774705;2.172694927;0.902067413;0.625267159;10.40622358;19.71206995;42.97278484
0;-0.635247973;-9.597342286;-10.90060064;-1.974505426;1.348504567;-15.29565568;0.61680131;-8.561421829;-9.796923083;9.646306165;19.04733712;4.505315266;-3.354571396;-10.28353932;-11.54039922;-12.40144599;-34.5072166;-30.63653837;0.931433138;0.314932132;0.408824227;5.285288107;15.81775645;6.954115386
0;-1.662548992;-9.447335189;-9.885207895;0.618269469;-0.811998747;10.81066894;1.30158445;-8.037513882;-6.646277956;25.10427817;56.31396517;87.1186831;-7.299490602;-11.80340688;-12.90250507;-26.39270495;-35.26131661;-56.34284914;1.750193964;0.858988971;1.027573868;12.81623461;17.56809071;40.46978931
0;-0.046587553;-9.842249902;-10.74375021;-0.528545114;0.49485568;8.710911985;1.372159822;-8.491015981;-8.459469135;31.63521063;46.02645533;103.9993999;-2.477934098;-11.5827684;-11.88259681;-22.39970913;-35.56975444;-33.12450386;0.773925596;0.681079596;0.660078249;12.09630735;18.77118907;49.14774444
0;-1.357851231;-9.628333005;-10.45790923;0.443633612;3.993990152;-5.768716226;4.933317942;-7.460910268;-5.139972705;60.27230498;86.21720277;146.0083079;-7.795772159;-13.96092643;-16.61016003;-42.39757194;-65.02541651;-63.40856454;2.490094861;1.285453914;1.785389269;20.43094979;31.98675112;57.60718392
0;-0.693497012;-9.736520272;-10.65273988;-3.595515231;2.377063007;-7.148298217;6.401191756;-7.003491416;-5.342387545;38.60398367;94.09229187;123.6591876;-10.12220591;-13.84868979;-17.79851399;-51.91568229;-98.33120702;-80.32850021;2.908037998;1.183023342;1.860673959;21.17178658;45.92057562;63.95737173
0;-0.546133316;-10.24381392;-10.61967218;-4.522037169;0.504931036;16.68641417;8.704420285;-6.020289511;-6.94181545;55.11310587;114.8734731;158.1021038;-13.92486594;-15.86994429;-15.58024697;-70.14613135;-141.245985;-96.74208831;3.99792841;2.091946306;1.642048263;24.00121349;53.39875814;91.86578282
0;-0.679593823;-9.85330293;-10.65587836;-5.097857022;-1.10092409;3.955044123;9.87034605;-5.807024274;-4.983055378;48.70134433;87.56029209;166.6254096;-15.50167818;-17.18264082;-16.91605994;-79.67078539;-130.5450017;-130.8693074;4.315747022;2.447740551;2.247149696;29.135466;49.39853672;92.64137878
0;-1.732984517;-10.09870955;-11.09305493;-8.153522162;2.748789703;-12.90852443;8.73789949;-5.899610761;-4.858225535;74.80369931;126.813427;177.9928648;-17.02908294;-18.35615374;-20.74272475;-79.68031255;-153.087529;-131.530504;5.728078424;2.617243217;2.761502332;35.50239393;62.89115243;91.68302414
0;-1.408655481;-10.13108499;-11.0805769;-3.294796243;17.10812511;-19.22541551;9.755806634;-5.720081344;-4.806547101;66.05780869;159.2403353;172.7305279;-13.72293941;-17.63139381;-18.61656307;-77.91746904;-163.5897135;-132.4676593;4.794656666;2.49124366;2.209013983;32.39159471;67.72324406;95.90361416
0;-1.031494178;-10.63652259;-10.90546104;-6.004089139;-6.010302679;34.5240096;7.339537607;-5.982933787;0.030200514;73.90452437;91.08972872;189.382858;-17.98662987;-17.28524398;-21.86751833;-122.6954636;-113.4220601;-139.8558862;5.004654071;2.580007654;2.928757143;34.56740611;50.45298152;112.851851
0;-1.740259113;-9.843558126;-10.69312994;-4.88089985;5.668593176;-4.201758642;11.50456878;-5.459243976;-1.849430954;86.29275173;101.9814109;191.607048;-19.31518302;-17.56517419;-21.52402076;-98.63050891;-128.658647;-165.1749756;6.1467852;2.457466285;3.372731516;35.42210683;52.20279665;100.3981326
0;-0.576570998;-10.4156164;-11.00250041;-8.817213248;0.229917551;-11.88208735;13.59939589;-4.822599166;-2.829528005;87.31912281;87.78766543;207.9187338;-18.55005772;-17.7323323;-22.0354044;-92.10051283;-111.5486726;-155.1767314;6.216767189;2.555973705;3.095070448;32.54699072;55.12762912;105.3773453
0;-1.969291784;-9.996664947;-10.9886614;-1.154204699;17.66346172;-10.24616896;15.78345732;-5.349941508;-2.44011938;80.9143996;117.3166794;194.1670154;-16.97070822;-18.69410638;-22.39741758;-108.2330189;-130.5745907;-144.8174814;5.708258659;2.675594446;3.063405853;35.61748525;62.00721584;104.7681053
0;-1.42458511;-10.65844462;-10.75249006;-11.19961118;-5.312608196;32.4165669;14.82855956;-5.157700881;-3.712922831;55.93460066;102.55854;204.9175327;-17.11321817;-17.96971525;-19.8507245;-92.64929394;-140.0208446;-131.6543056;5.737754359;2.909514933;2.735412395;35.82911064;62.00493455;116.8086583
0;-1.916294244;-9.881031859;-10.45194612;-4.204763318;5.315609384;-5.546076809;19.04295512;-5.64580891;0.838815858;108.6056779;148.2117592;176.4736164;-19.24135118;-18.26493498;-24.02845249;-121.3347855;-142.2121879;-175.5261263;7.18140425;2.841669987;4.054485953;39.96773262;59.58546712;101.8524315
0;-0.686557528;-10.14427284;-10.85160219;-7.219581099;-0.980830941;-10.64937451;12.20340583;-4.84690623;-4.17524575;70.16643077;106.1096196;167.1595675;-19.23756356;-17.76403814;-21.05393859;-82.06623956;-127.1389297;-125.3072528;6.207701136;2.843222113;2.745031511;30.07733143;51.45738798;97.76680679
0;-1.616410996;-10.16720924;-10.86114166;-0.931902751;17.12047166;-17.40151245;10.37372681;-4.832771836;-5.331568625;64.68310356;103.2900699;174.9778514;-18.70304488;-17.72614173;-19.64656271;-74.43497736;-136.8165891;-134.5386642;5.703126202;2.573708759;2.216730319;32.00138428;57.39096569;102.0914616
0;-1.207600174;-10.75580242;-10.86801778;-8.103179038;-5.666016224;35.16293728;12.02001263;-4.963859252;-1.307267774;96.07523184;100.2758579;179.3074683;-20.34906769;-17.05943258;-24.0156434;-110.7991877;-167.4345369;-151.4281628;6.106391532;2.915814783;3.278886333;39.4816245;66.36768023;115.1444002
0;-1.676216097;-9.956103562;-10.77738743;-5.676146569;4.972538356;-4.40200992;13.70972085;-4.718918143;1.900144734;127.6974136;137.8321028;184.2198001;-20.7681068;-17.38495042;-27.3965025;-142.1760858;-190.3363964;-174.624285;7.195643986;2.672783219;4.55324962;44.69850197;69.66717296;105.1528331
0;-0.604463411;-10.31965614;-11.19632456;-9.537525242;2.837491775;-13.55334967;15.62771957;-4.060314752;-1.449557609;89.5381149;113.7511674;201.0680375;-17.80331801;-18.07173358;-24.11969233;-123.3307269;-146.3146874;-167.3465082;6.294291194;2.788106059;3.323901704;33.72271209;61.61532209;103.7534839
0;-2.430156818;-10.32788967;-11.12415823;-0.14555272;16.62218202;-5.605064904;14.40090978;-4.682336582;-1.063690561;102.4542057;144.3258525;208.2791181;-20.69499389;-18.61684442;-23.55001739;-118.9380098;-146.9303024;-165.2929148;6.231020559;3.0698491;3.233634173;39.82865562;66.1336814;109.9323229
0;-0.807914386;-10.58550554;-10.8498412;-9.292844841;-6.590571839;34.32003864;11.60374818;-4.612825158;1.749299521;96.42680871;103.2361563;191.7725707;-19.79220852;-17.20695007;-25.08785648;-124.6093529;-153.3454267;-163.3995233;5.92994007;2.98116179;3.71765666;36.21328042;61.30088251;117.6183597
0;-1.24710447;-10.45344692;-10.6406445;-5.047758643;3.489145186;-13.72084805;11.74432351;-4.625702903;2.362452949;113.176072;97.16756283;209.3589439;-20.48131676;-18.67501914;-25.67846756;-137.7835695;-139.2897438;-170.562016;7.08237782;3.011427265;4.685118548;41.18677092;48.05479277;107.5612785
0;-0.427460164;-10.08191389;-11.10081677;-5.569262782;6.742104981;-17.88086445;14.89941521;-4.784144874;-4.501327159;77.12451643;110.2239893;209.6455295;-19.36829013;-18.56201646;-20.26227483;-81.48901323;-129.0614393;-161.3436724;6.213202322;2.596653583;2.793348442;29.18600681;47.49792441;110.091442
0;-1.892102095;-10.21732982;-11.12646096;3.061616436;11.40738848;3.557945173;13.98599249;-5.439732729;-3.823000346;72.58386955;125.6094744;200.9011469;-16.99283434;-18.24002397;-21.18934551;-84.44474231;-137.8040666;-139.0247507;5.82380036;2.359251928;2.724889576;33.26923161;62.36862624;106.3760299
0;-0.369868434;-10.8362742;-10.87556281;-11.99760016;-9.839020753;27.84062645;15.65258552;-5.035281929;-1.013914561;101.2815866;162.9297928;216.5812902;-19.49441564;-18.86374923;-24.31657224;-109.8319481;-131.5269857;-152.3458173;5.989603058;3.044639834;3.458882215;37.18245369;68.75361652;120.8970392
0;-1.502201486;-9.908646653;-10.78604121;-3.813078431;6.918138645;-4.370296086;15.15081183;-4.460394759;-2.204339062;99.97944303;96.10517729;231.2205904;-20.56252278;-19.00525406;-23.5108334;-105.5780741;-111.7821163;-160.3902519;7.346847453;3.077943373;3.83581815;38.9855451;49.61711132;111.1506809
0;-0.330245184;-10.50319666;-11.14490324;-8.530564476;1.966667496;-15.38924236;17.77449519;-5.152515456;1.424453732;124.1070238;142.8849009;224.0926209;-20.17659487;-19.07197667;-26.63567955;-131.6781778;-140.4269024;-165.7093105;6.852565547;3.021036282;4.125517885;41.44825802;67.9113051;109.1835659
0;-1.579054513;-10.17638982;-11.16480023;-2.583179681;15.35815492;-14.39014314;17.73198402;-4.931919465;-1.660672133;94.73862994;134.2679993;200.2947598;-16.72613752;-18.60321597;-21.58722412;-86.82431886;-126.6332272;-122.5889687;6.007961413;2.596231294;3.00829913;35.21688153;61.10443532;104.7651814
0;-1.578359406;-10.69216807;-10.9396742;-6.004682846;-0.521083068;26.88426425;15.85314299;-5.811979912;-0.618585663;110.9049736;90.99408721;219.3998652;-19.25690447;-18.42564206;-24.65336598;-106.3788852;-138.1912891;-137.0250149;6.12274957;3.081184004;3.344898356;39.77451119;59.15221517;116.8281894
0;-0.676092735;-9.941735339;-10.5306633;-3.662163675;-0.595422117;6.839310965;15.62580061;-5.524605334;1.153759381;112.4845448;119.9991568;208.7508855;-20.36441489;-18.41047319;-25.66062226;-129.2932494;-139.8817502;-170.8403948;6.372024033;2.957878262;3.996464309;40.25481672;57.27324924;110.59616
0;-1.387317041;-10.19461385;-11.06975957;-10.25106924;0.484489028;-1.981701072;19.51331228;-4.876031235;-0.651280831;77.72342524;100.5427026;220.0537086;-18.76899927;-18.39106568;-26.12407282;-114.5998847;-137.1902239;-136.3723247;7.308511441;3.141131998;3.772510357;36.2493521;62.46229343;105.8005092
0;-1.367191227;-10.00502774;-11.11928742;-8.644341076;9.102259098;-15.73043184;16.34402598;-3.249284934;-3.917222984;55.54991273;122.3204084;185.8503433;-15.44397433;-17.05096552;-19.28975453;-79.6962341;-136.643122;-128.1428779;5.636276493;2.726435969;2.592429108;30.89443732;60.58167914;106.3433534
0;-1.72001932;-10.20374834;-11.19465737;-0.56880694;15.15672669;-9.393158214;20.55081075;-3.463867357;-4.392773953;69.36211128;136.3787396;180.2585043;-20.67472303;-17.73140548;-21.15510551;-79.55631294;-149.0756029;-147.0634231;6.811037522;2.61931367;2.727740463;34.00007355;67.58071417;109.827969
0;-1.018524689;-10.67970032;-10.90509786;-7.332330089;-5.369522742;29.58031098;16.2425196;-3.992942011;-1.831589142;106.3169635;127.43543;209.8150462;-20.21702985;-19.33149164;-25.64942683;-106.0846897;-99.19698439;-164.1930917;6.064112842;3.004044577;3.274218059;35.81345509;55.98302032;123.4753817
0;-1.042848308;-9.821613635;-10.59720517;-4.335548719;0.531722903;1.677001585;18.48666545;-3.821578724;0.995522442;130.1958521;120.3763064;220.7378807;-19.12713264;-20.00721616;-25.4636631;-114.5236845;-147.3577338;-175.4875295;6.644700419;3.241105325;4.02188093;48.32767797;73.02333091;112.5347328
0;-1.28367535;-10.50046422;-11.16861907;-12.77918871;6.692208303;-5.290089217;18.42196521;-4.668676417;3.188066974;125.5564754;154.1203229;222.5625134;-20.77288931;-19.32521615;-26.16722866;-123.1087578;-155.2182576;-184.3892719;7.84684454;2.950166523;4.706991051;43.49737619;77.04801328;109.2037299
0;-1.013135189;-10.19867341;-10.99830474;-7.437809344;8.530865658;-16.5025628;17.97769999;-3.364700742;4.511609265;137.515851;144.934728;233.7863907;-20.56519649;-19.38744281;-26.47450036;-125.8262336;-147.5046362;-181.0704982;6.196778973;2.823486379;4.128849333;41.11114059;67.20521069;114.2208824
0;-2.120805376;-10.16940153;-11.18059852;-0.146517843;17.1506088;0.545373282;18.96061059;-4.490029014;2.678948594;125.7050438;103.4882943;224.5058078;-20.88154539;-19.11705652;-25.38935207;-104.0822342;-175.8237897;-165.0610845;6.745203847;2.689771467;4.007492434;45.21617952;69.52733082;111.1247251
0;-1.075925119;-10.92893045;-10.99091619;-16.68894118;-10.95839363;31.84375608;18.03849734;-4.985107142;2.586627543;122.4218224;136.9891406;232.3560561;-19.94228892;-19.54585599;-25.29749511;-116.1067081;-176.9551961;-171.6712386;6.283750941;3.291455151;4.104708515;46.37274915;80.14801199;125.6938604
0;-1.522185684;-9.903704189;-10.93514728;-5.729226488;8.139277727;-7.886716237;17.10757448;-3.672141064;6.659720337;159.2131647;147.0555177;225.3104078;-20.87295627;-19.39774315;-28.24958273;-158.3199571;-146.4463765;-187.5134712;7.499729404;3.233742696;5.24510055;52.97885438;72.03449523;111.4081703
0;-0.82160833;-10.5578863;-10.72086645;-11.20518802;2.123359955;-9.783201786;18.03343128;-1.914375089;0.860803597;119.3496181;119.2072008;207.433745;-20.91348227;-19.62236557;-25.10380337;-121.7844083;-143.7422403;-164.8859013;7.235286679;3.512008343;4.20453292;45.50116608;68.37023623;107.3572941
0;-1.068286265;-10.31907925;-10.96046389;-6.361497594;10.4605399;-17.24050323;18.63372874;-5.185750732;1.691835604;109.5675615;108.5507682;220.4105716;-21.26988713;-18.59636194;-23.46629457;-103.818904;-125.2514882;-172.2923465;6.57537966;2.668628989;3.484540248;36.11213931;59.143138;113.766923
0;-1.628442291;-10.45911942;-11.10311931;-5.210285561;7.355604304;15.8866465;16.10654039;-3.835088073;1.049373516;126.763256;106.4499915;215.715945;-21.3129715;-18.65564149;-23.00979503;-106.2120582;-138.3591688;-180.5307275;6.056810188;3.054374252;3.671986131;44.77185681;61.84009021;118.5618937
0;-0.5164158;-10.52217713;-10.70811678;-10.73113561;-6.488428677;22.66705691;18.11214202;-2.782953768;-0.324722628;121.5986004;120.793659;197.4893189;-20.86417924;-18.83358309;-24.31769007;-103.2619877;-127.6650597;-192.3046436;6.445719476;3.222855183;3.396011478;39.31204061;72.0429139;125.2097921
0;-1.298474814;-10.06000444;-10.9255252;-2.515425253;8.366923407;-7.26840451;14.21555888;-2.917715384;-1.050491447;121.0681037;83.33305054;214.4684681;-20.72121345;-18.79666954;-25.66407098;-112.311594;-104.141972;-187.1172885;7.039502783;3.22835694;4.226619652;42.43470763;53.03985469;117.8083347
0;-0.50901308;-10.36012462;-10.6193316;-10.37642918;0.902371546;-7.846873524;18.00276586;-3.598608014;2.248780422;149.9643551;110.4968849;213.9086627;-20.98811571;-18.33810046;-26.69391092;-145.7406067;-139.2801194;-183.1131009;6.919632559;2.949685633;4.338564427;44.28491183;64.04467015;110.0688461
0;-0.923195071;-10.18312896;-11.02081706;-5.520580517;11.7008269;-18.75917754;19.54768821;-3.858249385;1.549389022;139.7112774;155.4505189;213.5473749;-20.82281304;-18.35962309;-26.40965638;-130.8126574;-142.3993171;-193.6647917;6.216336125;2.874422374;4.012393528;42.52267668;70.97998756;116.1490123
0;-2.138278188;-10.17947629;-11.15281086;-2.207664593;13.22710852;8.362469263;20.72933774;-5.220212609;2.669168934;123.2110491;158.8166228;211.8619245;-20.9556056;-18.45209146;-25.95073276;-128.1132469;-150.5646102;-180.7276493;6.949827632;2.829601192;4.0397133;45.34762594;76.34130417;115.7122979
0;-0.883560906;-10.92057521;-10.79157372;-14.66840375;-10.00472889;27.88871365;17.59865369;-4.5149043;0.909537423;117.7575035;111.7345989;215.2914359;-20.57646409;-18.80292547;-24.79623079;-118.2684981;-151.2756829;-172.2347359;6.485667628;3.488957362;3.704746034;44.64347847;71.6984116;123.7693106
0;-1.545966753;-9.804783136;-11.02906039;-2.254445706;2.133737414;-5.542138946;12.98788421;-4.655999679;0.941567493;122.1395261;111.4125435;198.5575232;-20.74475632;-18.06247456;-25.85243537;-109.8528167;-161.8005062;-155.4048868;7.11929268;3.145975832;4.447871741;43.40999847;55.85599299;106.7989304
0;-0.581117719;-10.51352048;-10.69466405;-9.00704364;3.906755481;-4.001448591;19.89786457;-2.295408574;-0.310457224;117.0403524;126.3275204;204.0005698;-20.99518949;-19.60296119;-23.63770495;-123.7759384;-245.9718963;-191.4146932;7.834328475;3.669556214;3.834884413;43.39585226;80.44820455;116.0016917
0;-1.039275584;-10.18823978;-10.98471909;-7.20315042;11.68656931;-17.52311164;18.82655445;-5.37545784;3.926950942;140.2533208;154.3412994;212.3410521;-20.66764386;-18.4919845;-25.50400905;-123.5564481;-135.6937141;-169.6735092;6.258750365;2.778793245;3.859436155;40.06353817;69.75087869;111.6836771
0;-2.15135666;-10.19060294;-11.09199371;-1.377548754;13.01724528;0.046845128;19.04528695;-4.845538286;1.428155071;115.1240595;141.3481391;214.0655625;-20.50115795;-18.50791528;-22.67391327;-101.5357987;-136.9063335;-157.1838905;6.870308842;2.988502585;3.55815749;42.22937523;70.67606644;109.1769884
0;-1.132757802;-10.84916385;-10.82833755;-12.74705877;-5.575094025;30.24895766;17.11562229;-3.471639645;0.507576765;110.0248361;115.0955609;228.3666729;-20.00680593;-19.33254757;-23.08775289;-103.3609012;-153.9803847;-160.2035282;6.265045341;3.472956348;3.592153211;41.35503073;64.74380085;127.2120023
0;-0.905486391;-10.06581821;-10.91172709;-3.839721395;-0.472243567;-2.845002831;19.21912744;-3.236218068;4.75421779;145.4266212;112.9602401;206.11365;-20.95824692;-17.48287089;-26.22493253;-133.325676;-150.0274449;-204.8737386;7.4666168;3.098262048;4.822050723;47.70678176;73.77932982;116.9208589
0;-1.059067555;-10.21068733;-10.92352961;-13.91046417;3.988137619;-2.742275559;20.68099588;-1.968559978;-0.493607224;87.29153435;128.9467797;209.6826247;-20.06269233;-18.92355051;-23.59335967;-118.3194712;-141.4906597;-161.8501155;7.95679442;3.404943563;3.865475849;39.84360928;72.15574214;108.8109762
0;-1.217583896;-10.24359857;-11.01554251;-7.157437073;8.835613226;-15.20785641;18.8446211;-4.917300071;0.664976175;120.7097122;110.4588561;207.489637;-20.62856377;-19.35326954;-24.66806864;-114.679395;-170.4655626;-145.3986661;6.492530047;2.9988373;3.422088111;43.76557777;73.27370094;110.3402821
0;-2.369242069;-10.22359729;-10.86750503;-1.930584537;10.99317633;-3.986847034;20.96291278;-4.043632018;0.715727763;120.3487545;134.827653;219.3151373;-20.64449682;-19.2260127;-24.39392952;-124.4465273;-128.0561518;-174.4501378;7.249951379;3.22475166;3.449015714;42.04037078;67.14792771;113.97888
0;-1.236859602;-9.953653442;-9.559555699;2.655537802;-9.845261999;56.64808312;6.256207101;-3.00007509;2.978569816;64.57773739;84.71532086;191.7140902;-10.66936178;-19.18018885;-19.46556869;-126.092722;-95.77992746;-105.9936979;4.721082615;4.441483037;4.265706839;40.65089421;47.77199187;93.49831063
1;-0.82495556;-10.11413008;-10.11147551;2.11396662;-2.770415543;13.65271761;7.227199444;0.870307166;-0.283923213;102.4398527;100.4237631;122.3295282;-8.05433239;-18.77646991;-13.23679643;-60.1591876;-72.29295342;-88.80000696;3.275758537;3.667005054;2.650567866;46.88412204;44.6590165;63.38054331
1;-1.350806782;-9.311794008;-9.691928342;-11.17530179;6.420030391;-10.45391263;13.90145047;-0.756332769;-2.490280704;90.83994252;123.6536571;130.7951079;-8.376279273;-20.69002523;-15.5009015;-122.4253626;-99.58920616;-114.8275613;4.54267105;4.002299166;2.828197523;62.54211045;55.39945453;73.10522439
1;-1.25407827;-10.30899285;-9.937541497;-2.577630605;4.917304448;9.946431746;10.87799918;-0.178115127;-2.891271521;127.3243908;143.4741247;162.6460752;-10.37485995;-20.3647428;-15.4869048;-101.8771933;-101.4255973;-149.3352786;4.369187546;5.176539151;2.56188309;67.04912393;68.26253153;84.35543676
1;-0.389618013;-10.56116179;-10.28050704;16.93772573;-9.222957502;29.47099078;7.174277423;-1.423892362;-1.350168099;133.1808887;118.8648007;186.5837418;-15.30473991;-21.06449162;-15.24533719;-109.0460078;-119.0490215;-147.8335483;5.377727209;5.559944795;2.537390018;72.82753203;65.7180616;109.2349322
1;-1.091880611;-9.875116468;-9.591562841;-8.239298409;7.947450239;0.60092899;13.67767466;3.026764094;0.022135669;138.8753112;191.5302247;176.7354963;-16.84021459;-20.15435711;-15.99112202;-120.3441208;-195.8726668;-133.5743981;7.084823981;6.13298537;3.980909242;70.31272657;79.8491443;92.8858163
1;-0.673882673;-10.29771593;-10.66641614;-12.10472738;5.226346438;-14.70373655;12.91554494;4.376410945;1.137821585;143.4826198;189.0302033;209.4706528;-17.72638843;-20.48333925;-19.37064057;-120.4633663;-162.3094678;-154.8095685;7.045292814;5.880865809;4.005427757;67.59737119;70.11151989;105.3160521
1;-2.358749423;-11.16213882;-9.966665637;5.027483754;-1.892037515;7.172137261;15.12832926;6.352351787;1.338202373;174.1411744;161.1560517;209.9154085;-19.58744065;-20.67336548;-18.18980929;-133.5054414;-201.3460965;-165.9408433;8.258386136;6.536477952;4.304128998;78.84695962;91.7743185;115.867286
1;-0.661439957;-9.348398853;-9.831092277;9.270490893;-6.993227585;13.87582838;9.321370565;5.656012902;-0.170382107;141.410589;228.2247482;164.8304557;-18.52281671;-20.51937323;-17.94943605;-133.2567834;-168.334467;-150.805898;6.730849651;6.082549876;4.113295909;64.31264948;81.35440556;97.53783502
1;-1.118050263;-10.11623553;-10.33911779;-8.532246251;20.2695066;-8.734541501;9.953841751;5.632906097;-0.505912554;123.9922901;208.3283984;164.580088;-17.28903323;-20.22417772;-17.24591203;-130.4679989;-183.9813431;-156.5479376;6.499823869;6.811182954;3.401031664;61.25802097;83.89593639;92.23324508
1;-1.329442656;-10.32272488;-10.92363513;-9.452635721;9.260533493;-20.75791352;13.42103951;6.851612477;-0.110626418;130.212892;204.8489396;179.9353129;-18.42009627;-20.55674242;-20.92263564;-117.4323419;-159.1144287;-153.3594965;7.563523598;6.220181763;3.617633452;74.42871427;65.74165886;103.4198286
1;-0.572612101;-10.64526281;-10.52294862;20.28661633;-13.23563978;31.54105175;9.976515782;0.029939953;0.115991308;150.9043322;204.7658763;207.5257806;-15.53219524;-20.3203957;-16.89420274;-100.3899638;-120.7432326;-139.8443244;6.232505901;5.180442479;3.044036432;69.87980943;73.47013071;105.6938467
1;-0.534140925;-9.520759397;-10.13924922;-8.694196518;6.572512829;-0.594207076;10.45024705;5.708941281;-1.530939188;130.1473929;239.2408823;189.8124774;-16.47344847;-20.81164165;-20.7232185;-111.3926927;-165.9569848;-202.7768173;7.284770094;6.877539678;4.162485688;59.73270202;83.26304951;94.48033715
1;-0.908263112;-10.79655815;-10.69109078;-14.9867557;10.72869359;-26.39516012;8.916030126;2.911416996;0.481147051;129.1250069;133.9443263;167.1902224;-14.64903413;-20.16082097;-18.78986556;-99.03924168;-118.3075487;-174.303631;5.462897361;5.210000384;3.487374861;66.84329065;56.98224202;101.5266195
1;-1.415699803;-10.7631574;-10.14728062;23.02256014;-5.212944985;32.83976861;11.06927716;-0.455172419;-0.418899227;154.206767;179.9093239;217.5527834;-17.06358885;-20.02607048;-15.55002612;-91.65231384;-174.2276487;-146.6543215;7.707093943;5.660322011;3.418187363;73.55487755;76.86084819;114.8962307
1;-0.577748531;-9.791906561;-10.10792149;-10.76624931;8.808851249;-7.685576843;11.90063407;0.252110137;-1.490296705;143.2706428;177.3856864;179.0372334;-17.11500807;-20.06507912;-17.18484824;-109.7707577;-131.7610758;-126.6694351;6.333769996;5.323991417;3.221424359;62.78911145;68.44224291;89.38951996
1;-1.747737122;-10.32308644;-10.20764556;-9.646206257;8.595459022;-14.82411256;8.370098952;-0.121454605;-2.390036929;145.727937;143.9326689;186.9711905;-14.41871994;-20.4781197;-16.10485957;-107.6596799;-114.1780888;-139.9133242;5.483329678;4.736964628;3.138709503;65.01379171;58.06616213;93.41374758
1;-1.130382671;-10.6456422;-10.45166451;22.76658936;-13.06951284;32.44531891;9.616596349;-0.524507407;-1.157580039;150.3680341;222.8201908;179.4375485;-15.00789333;-20.04750635;-16.97982857;-101.6159025;-177.9221098;-120.2226186;6.03345075;4.979649192;3.068980477;70.28382389;76.86773602;101.5781457
1;-0.825010633;-9.821643582;-10.13248019;-11.00316789;13.73764003;-9.508313049;10.66046173;5.558219665;2.508914313;121.8861556;196.3640439;192.6043326;-17.97011843;-19.52047271;-17.85292172;-118.9871183;-122.164053;-171.4945715;6.096686406;5.72984905;4.173477162;67.38515845;73.41276724;99.35045151
1;-1.615617721;-10.7622871;-10.36529585;-11.78239357;9.49105898;-18.58492209;11.00565108;1.786688506;-0.092250258;140.8996178;146.5418555;189.1095727;-18.07006438;-19.89489619;-21.9574444;-93.97607963;-178.575154;-157.0761557;6.900529219;5.017579537;3.744195457;64.96759455;68.12606542;100.3004964
1;-1.101701109;-10.79859482;-10.48890086;19.27230411;-8.703601956;33.10603225;12.90375165;-0.292620863;0.314244496;142.989716;220.7934665;188.2501296;-13.63042723;-20.43358641;-15.66286338;-102.1000019;-166.3408724;-142.6043472;6.269841694;5.369513154;3.297779864;74.29779492;73.76045463;105.8006086
1;-0.767479215;-10.00711471;-10.27240402;-10.66819922;7.718207561;-9.70822803;13.75697283;-0.98148699;1.444254946;142.7214192;212.4635648;198.4230938;-16.73740171;-20.33259353;-19.52337248;-151.5314204;-173.0395518;-148.8433946;7.189633529;5.474853199;4.517386139;67.43889013;77.2519775;100.4433495
1;-1.78675348;-10.25873038;-10.38262968;-9.535337435;11.5240365;-17.09597547;16.84981289;1.715699243;2.246069106;144.073423;282.1627443;190.5939243;-20.36487001;-20.27978752;-22.75864542;-119.1875654;-170.3722199;-170.1029118;8.205818215;5.323083217;4.3296827;70.45692329;84.67035194;104.4093204
1;-0.452071327;-10.90656671;-10.88532994;22.07122507;-12.35622144;32.21029973;9.656118862;0.404954672;0.776450626;163.1898934;261.0734389;195.0551831;-19.30490302;-19.71009933;-20.86209327;-109.3153927;-156.6878812;-128.3172088;6.97884694;5.806955452;3.623751182;75.923627;76.53366419;106.562432
1;-0.735621648;-9.620867642;-10.43796006;-16.64636364;9.21451687;-12.10101436;12.41366679;1.68510596;-0.275128633;168.3016727;229.7459294;210.7702576;-16.10942482;-20.60668627;-19.8633877;-157.0501903;-158.8821672;-182.7706;6.925000764;5.988795014;4.075644316;76.74888222;84.37713506;98.21500397
1;-1.798654397;-10.24197899;-10.17097027;-4.87799812;13.43977347;-10.76761137;12.16533996;0.974783709;1.009439091;142.5290912;265.6937206;211.7212933;-19.77549512;-19.85549771;-22.46698132;-116.4863574;-151.6154663;-162.3341904;7.160439303;5.011961015;4.088534881;69.91912155;73.73513258;98.11273846
1;-0.273002748;-10.36825211;-10.76055759;14.75480491;-14.24629802;29.13122294;11.89072224;4.716147114;-1.373289574;146.252638;212.6816007;208.4050137;-11.94310005;-20.23302826;-19.38415967;-122.2193356;-110.9846755;-168.8337514;5.824335502;5.965871987;3.035980298;70.88684663;69.93669931;103.4411151
1;-0.802444753;-9.537053315;-10.2726598;-7.519260335;10.23597878;-1.155663477;12.3874083;2.114538198;-1.428357592;134.8088131;192.5266188;201.4087887;-13.37421397;-20.86411958;-18.89373118;-128.0506281;-117.0871037;-142.0237947;6.032142538;6.081258996;3.843425403;68.76297329;67.5288262;88.1878689
1;-0.95059494;-10.39334775;-10.59232658;-13.92252457;9.844091591;-24.88280695;14.60383562;1.117251033;-1.391753611;146.1391497;223.2987942;195.8999844;-16.5223243;-20.01305364;-18.37892722;-142.1596121;-159.4616861;-149.9673607;5.945292651;5.437745215;3.62527504;72.37820486;70.18239451;102.6962822
1;-1.219915787;-11.14557053;-10.6738086;19.86694869;-5.604622339;30.07977668;14.51129385;-0.511671138;-1.964999948;152.5212621;229.1765856;206.6598878;-17.86908823;-19.76775378;-20.89989928;-129.270853;-146.046323;-169.7770154;7.408988821;5.38682912;3.686298017;76.71427875;72.37726464;110.6475812
1;-0.954294282;-9.426804692;-9.865544544;-5.499956074;2.677753078;2.396035607;13.97570039;2.614692354;-0.756891753;139.9256818;251.5015394;184.1262245;-16.2255031;-20.18691399;-18.6687321;-113.1208555;-144.4613252;-174.8125816;6.636211341;5.952208497;3.561454286;64.85910155;82.50309272;93.32068196
1;-0.939296329;-10.45899436;-10.68354681;-15.34963811;11.54583556;-20.69107897;10.75447268;-2.119439521;-3.117984856;134.6732139;176.6662711;200.4287875;-13.96812773;-19.82867208;-18.29317216;-112.3233521;-209.6406706;-132.3626749;5.981874253;4.301108616;3.137984274;66.20630244;72.40779721;100.8289333
1;-1.780107699;-11.25041482;-10.22950988;16.28762771;-0.492093331;23.18683011;12.97615655;-0.343057548;-1.501712389;140.863723;216.3634375;196.7267083;-15.5901778;-19.89382346;-18.53086703;-93.40457339;-143.5824963;-140.9991307;7.038340194;4.863635987;3.293727808;71.92267981;77.81272221;112.0236316
1;-0.759062442;-9.474275885;-10.46040193;-6.296822344;1.370494418;7.572063803;14.70310401;0.462145537;-0.351691748;140.8070358;158.8183363;208.0205146;-16.04366455;-20.04700186;-16.75247094;-149.9624062;-156.0592455;-147.1594163;6.855983131;5.58205875;3.310480853;68.96600257;71.36011025;96.18816396
1;-1.313933383;-10.46563772;-10.34870007;-13.95537761;15.67803008;-23.64521536;8.43592007;-1.712828086;-2.251376497;128.4481203;230.0287801;195.5599939;-15.22533152;-20.20699547;-16.04853495;-110.1559475;-125.6035638;-132.1159471;5.760205707;4.237162082;3.000960211;62.33651954;70.47166198;98.97587341
1;-1.694138001;-11.13525249;-10.14288349;15.49422476;-3.501006032;25.95404128;13.65277531;-0.394921057;-2.542788475;133.8791508;149.1330891;203.4302904;-18.52563619;-19.77819497;-16.24836091;-103.0368031;-148.7849032;-139.4365091;7.059150645;4.984525296;2.96115549;67.48052913;66.5362282;109.0549578
1;-1.137553816;-9.520753205;-9.786284201;-7.008061668;2.945853694;5.904292821;11.59693005;-0.263946956;0.50924852;121.0960955;224.2209583;180.0309583;-14.55847215;-19.59384639;-16.12010905;-109.3861224;-133.8444772;-144.071566;6.206490261;5.156180142;3.50706786;63.34776488;82.97043999;94.44810741
1;-0.830593555;-10.31682272;-10.75177183;-9.919944651;10.82086735;-16.51596748;13.29630053;0.480789403;-4.204434965;123.6779649;182.3778803;184.2121447;-13.07809007;-19.48511945;-16.89920837;-107.1913704;-126.121228;-149.820484;6.066776712;5.005841687;3.149254193;60.91848976;59.64787976;99.17762456
1;-2.45480698;-10.77185316;-9.877975616;8.636234225;-0.852444161;8.575089047;9.826963036;3.948208155;-0.927401191;130.0381019;248.5593336;209.666893;-15.78907723;-20.1204803;-18.26339582;-90.40038537;-179.0972086;-141.8433183;6.508531698;5.584852328;4.065908863;68.3999859;76.58926053;109.546864
1;-0.560732687;-9.65496982;-10.03123418;2.389430718;0.319916986;16.11009847;7.348710439;-0.258900075;2.09748964;140.5147686;122.2475914;195.3828331;-16.75284309;-20.07387018;-17.1663023;-118.062129;-157.163862;-131.0587679;5.991088464;5.463055397;3.634876615;71.03705679;64.39782021;102.6015935
1;-1.22572305;-10.45679203;-10.7127817;-10.95879773;13.57026745;-19.28989497;11.49020932;-1.162355844;-1.484369842;134.5725425;175.3845104;206.3928357;-15.26233328;-20.62523325;-17.76412675;-140.6757483;-137.7321107;-156.0734343;5.895952619;4.788711213;3.371767966;63.92021877;63.36035014;102.7007992
1;-2.279910866;-10.70322115;-10.07381866;8.509491356;1.566694602;8.991123012;15.05253961;-0.217286667;-2.45674905;142.0037625;202.9534724;228.3904196;-14.12832891;-20.43159531;-16.31486374;-118.324178;-165.9511315;-163.1095795;6.964118737;5.384543451;3.215478725;68.80390023;79.68418824;112.1345364
1;-0.586013421;-9.661609887;-10.28085022;2.665295224;-11.04975134;13.29782455;11.03068039;0.586357308;1.458594573;122.1447738;256.2854088;198.8484219;-18.50302511;-20.49594387;-18.95885141;-147.0202344;-163.3223299;-141.7320134;7.05587647;5.876208318;3.979639745;65.72530752;81.84976872;99.25672684
1;-0.854140228;-10.28234499;-10.61711209;-11.37443758;14.61929622;-13.27321122;12.65223847;3.259490419;-1.850739177;130.9496208;260.2555242;192.1658183;-15.30924034;-20.01478168;-17.54160308;-131.4422059;-147.461808;-175.7053447;6.459943582;5.697966059;3.910174371;62.01192596;80.38650264;99.46259112
1;-2.061049577;-10.85509748;-10.10688316;5.492693025;-0.193054209;13.38317128;18.14708886;-0.540042066;-2.187842102;147.035142;179.3693363;200.9696449;-17.09974904;-20.31707946;-16.14818681;-128.4912727;-138.6384645;-155.8975459;7.021611973;5.290578229;3.236887854;72.52177137;73.50968643;110.2136631
1;-0.935887491;-9.468275818;-10.23640646;-1.969133562;4.571859601;10.42372138;9.03316527;3.824260916;-0.110740705;136.154783;251.0728653;202.305937;-17.62020858;-20.49882567;-20.34786675;-145.8270541;-135.368065;-159.4736882;6.934681582;5.926165668;4.086782373;70.94989732;86.26397206;106.7000517
1;-0.703273758;-10.54624181;-10.72323766;-11.31014389;10.70709999;-14.34922422;11.29353316;-0.406945388;0.123528217;141.188932;191.8395499;198.5115041;-16.97454007;-20.74589111;-18.08052561;-119.034114;-164.4582437;-148.2812987;6.38379664;5.398126993;3.561849361;65.03985753;73.71306217;103.4355049
1;-2.449529662;-11.12555527;-10.178145;10.65496968;-1.831474086;16.23727072;9.255983514;-0.05763568;-0.902437047;134.3762701;159.2509357;217.2242556;-17.99915271;-20.21470701;-15.73540358;-120.9669795;-153.6568957;-140.2483231;7.060944506;5.240367031;3.223283857;72.98644177;71.57580687;119.0051044
1;-0.947000942;-9.488521066;-10.09121394;-3.885237447;1.189710664;4.814054198;13.78984002;0.251290653;2.579426839;131.7156645;243.2170429;182.9749775;-16.18431976;-20.53730099;-16.03320624;-147.1800044;-151.9212633;-142.6916759;6.113359072;5.727705823;3.827960874;70.11021878;79.72345288;99.98994114
1;-0.750347683;-10.31454527;-10.89445861;-11.7584238;10.11244045;-21.91763523;15.94193704;-0.036492776;-1.95328555;129.5123264;244.8222535;189.2607725;-14.71680021;-19.94814102;-18.25843744;-114.053118;-115.9987315;-155.6835268;6.115102134;4.857500347;3.273841328;62.41251975;65.76061207;101.1478677
1;-1.874679968;-10.85660864;-10.32713684;16.41884575;-0.409676697;25.38324461;12.03441976;-1.265064084;-3.295792581;143.7740181;196.5029666;214.6712835;-18.14647385;-20.3212065;-16.77324561;-124.5441363;-184.2752972;-140.9773607;6.95265901;5.168050911;3.153857747;71.29969146;75.84826068;107.7675976
2;-0.401626786;-9.686109988;-10.11380217;-0.616716119;5.605631074;7.022444875;7.11622369;-3.950973665;-0.777697526;100.5574858;135.946139;119.5263374;-8.182446176;-18.36452452;-17.33644465;-101.2913062;-67.32383444;-88.68781804;3.499436243;3.090081028;2.964025369;50.6335809;50.8387803;61.20957629
2;-2.21453052;-10.10811668;-9.96430363;-6.460891365;11.43093388;-14.61091061;14.98402361;-0.524285078;-3.178998127;127.4215972;168.432581;160.2749703;-14.34565927;-20.21639414;-15.74382726;-125.7025967;-142.9609378;-129.4574264;5.278940461;5.066768898;3.05936386;65.09592354;59.46229063;79.8575348
2;-1.534760793;-10.37359266;-9.896996842;17.95642181;-18.87564318;27.73990556;8.296299088;0.625914442;1.680823711;135.1936517;144.5200445;161.5716485;-11.60004927;-20.46688067;-20.27942537;-165.9735909;-182.0311823;-127.0969167;4.4933134;6.375753405;4.056805539;83.09142313;77.75867238;89.67681005
2;-0.808015759;-9.462586832;-10.22462425;-17.11064897;15.30122543;-12.85565507;11.69507283;1.894825343;-3.666784468;162.3315642;155.0886868;163.7007193;-14.79827542;-20.30556406;-19.96735358;-172.0705295;-175.6997671;-155.6569098;5.789004482;6.763057914;3.793022255;82.7189737;84.45260607;84.57459414
2;-2.003323719;-10.29290602;-9.934116898;-5.353775496;3.195242817;-7.65113534;8.874428766;2.048951556;-2.557465373;130.814964;110.9521937;156.7029975;-14.06776207;-20.05054312;-21.79984582;-179.3573878;-178.1220404;-158.3984764;5.61399966;6.594051187;4.227036417;79.49441635;62.49154174;82.4112587
2;-0.781085888;-10.9950724;-10.38987439;20.122834;-11.28666232;21.2511054;9.341631788;-0.074242592;-4.297204707;151.7139541;218.0614442;145.732923;-10.33218384;-19.98726736;-19.42897958;-118.5029543;-166.5963846;-142.0816429;4.394648108;6.759096359;3.082189533;75.13248462;79.53024758;83.67139615
2;-0.204615821;-8.921623421;-10.57681123;-15.32950733;13.42699283;-14.46569773;13.08405764;4.13554637;-4.203562744;150.7187884;206.4976949;171.3339718;-12.08085537;-20.16311327;-19.58109324;-119.4776419;-162.5910076;-158.0393445;5.276165508;7.304089015;3.699900326;69.82589078;77.05352908;76.59037302
2;-1.698195559;-10.08145673;-10.39420322;-1.139133483;3.655152883;-3.481119395;7.880211711;-0.63824668;-3.930540918;126.6116872;146.5226752;152.6845124;-12.3085962;-20.25624312;-20.2920858;-149.3208298;-117.8398964;-134.5723648;5.287492253;6.277367946;4.050061949;68.63300248;62.58310513;83.95391206
2;-0.635293932;-10.56603202;-10.65944414;13.93826612;-13.71506519;19.49139345;14.04955094;0.300828786;-0.109777863;132.0735736;168.7802645;152.3646169;-15.62142007;-20.13220946;-21.87294397;-144.4000648;-126.0885668;-177.0414399;5.607333841;6.356379066;3.994102429;74.96422861;70.28171005;90.49576886
2;-0.531569003;-9.648075244;-10.45437229;-10.57773863;13.95889139;-11.67281402;16.49190387;0.973738909;-2.421806035;138.5189368;229.5615089;148.3018229;-15.87840193;-19.86693498;-22.03876219;-118.1577656;-121.7207508;-186.0177437;6.497644418;6.570561296;3.878191543;69.30439783;81.88741223;87.60886717
2;-1.691943365;-10.15381494;-10.25692295;-0.811917344;2.224187858;-1.60424242;11.07708759;0.512202622;-3.583808817;120.7744409;160.900651;145.5710349;-11.5120383;-19.82691841;-21.57131138;-148.8075927;-129.9772378;-146.7965655;5.460700493;6.470914236;3.595034231;72.06797246;67.31783246;85.98908333
2;-0.30127315;-10.03136275;-10.56085471;6.467231538;-5.869304515;9.229568165;11.07611555;0.810486664;-1.68099587;121.7380543;142.8492726;136.0069014;-13.94568;-20.17093481;-22.0525555;-146.4886474;-131.3730715;-162.0277004;4.507547451;6.738397485;3.491843022;68.98659695;56.80764862;79.74735323
2;0.117019022;-10.04989883;-11.22413303;-9.490864233;14.67890682;-13.4156375;13.90147018;0.370809983;-5.594473398;95.06810731;166.0650926;157.0720068;-16.49811182;-20.72158104;-20.54922415;-108.2159602;-161.9041082;-183.6237333;6.149291545;6.602535735;3.530996086;55.0744919;73.51894476;81.8571167
2;-2.202253544;-10.60730515;-10.02305829;19.86705479;-5.625278768;21.19408214;7.869938842;1.787323978;-3.403424134;144.5546113;137.5401192;167.8339124;-13.12160245;-20.22746718;-18.95036277;-141.64605;-140.4052394;-141.1451122;5.721586753;6.605125133;3.351147621;81.1311245;71.44039192;95.38208107
2;-0.669736244;-9.471026749;-10.37169625;-9.978233346;6.423777686;-5.773265328;17.47958548;-0.606288671;-2.182800401;159.5141697;157.8496394;195.8106256;-16.20161133;-19.83227622;-20.84759647;-146.5740635;-206.8745968;-137.5889728;6.114016119;6.018694138;3.568890269;86.30317897;83.27000374;96.76060981
2;-2.360648888;-10.34866701;-9.751896141;-8.277483205;5.288248398;-11.01575382;6.567282915;0.13529022;-1.798370418;143.5714383;112.1155348;180.98044;-12.93128224;-20.16742408;-19.16733676;-153.3053019;-137.5004029;-152.4597455;5.356305905;6.279178066;3.720541424;79.5649509;65.55787739;90.51863394
2;-1.185386255;-10.10722478;-10.14782411;12.47150996;-12.90974837;20.8492885;6.565541003;0.753108383;-1.77707383;129.5368522;111.9696261;162.5082075;-13.52385633;-20.13770673;-15.43598931;-117.4344306;-174.797836;-122.5999176;4.098597347;6.355739427;2.692755104;77.2429618;70.40361542;89.1499983
2;-0.206495701;-10.57323161;-10.95734578;-17.9287904;12.58213593;-20.68513899;6.53501394;-0.686122658;-2.772563777;131.5787682;163.9437799;141.4665595;-11.00776964;-19.55622812;-18.67381475;-158.0388655;-103.9787476;-139.8514239;4.036913222;5.743692642;3.802656342;72.26292151;54.87309598;78.89033467
2;-0.764912177;-10.08516409;-10.63400964;6.653164114;-1.444977522;9.997184241;11.99740889;-1.824753939;-3.6594309;123.4319828;205.9395382;150.6216066;-13.00787445;-20.50013691;-20.20110023;-127.884567;-116.0678201;-167.0834422;5.59650052;6.219638531;3.317924616;64.61692166;68.46374456;84.24920675
2;0.134528141;-9.843911109;-11.04278328;1.896883739;-1.167244393;7.170403363;12.25965698;-1.68363405;-6.167344374;123.8535808;137.4833866;142.3043277;-11.01402884;-20.16360491;-21.34860349;-146.3096682;-119.5352158;-155.9176781;4.208516364;6.070256751;2.953757221;62.667264;50.70645101;73.86676181
2;-0.222451943;-10.73586819;-11.12596613;-10.76668045;8.308095357;-13.54396535;6.767803304;-0.108851765;-2.189773643;110.0175312;114.406411;132.5649228;-11.97626718;-19.09844582;-21.57052964;-118.4796756;-115.3071855;-121.6175001;3.712878388;5.881643461;3.975170944;61.89400816;52.76919398;73.67258201
2;-1.316962286;-10.18874663;-10.22624074;15.39861126;-1.199121642;14.89621974;11.79551169;0.492050111;-4.202714061;123.8125543;157.4839851;155.940849;-11.69351295;-19.76447868;-17.06860167;-110.8296287;-87.30095773;-126.8456792;4.890726995;6.602632009;2.850641218;64.38810484;53.29793816;83.38237685
2;-0.198826654;-9.023849176;-10.602586;-3.558802177;3.795193617;4.064315577;10.45123518;0.917588298;-5.069037379;111.422718;117.3613982;157.3662013;-12.35925097;-19.81921951;-19.18744652;-118.2414086;-123.8316029;-115.8737918;4.41411006;6.470323413;2.979899805;62.55018396;55.03233178;76.38043852
2;-1.206818105;-10.99418198;-10.51660612;-11.34279865;8.324650423;-21.10484051;9.823881206;2.168926114;-0.769645183;123.9812628;102.4669066;158.5818;-11.46704496;-20.01877514;-19.70726848;-100.3375269;-94.44458049;-126.9956258;4.886976333;6.332867238;3.572707494;64.82590918;52.48724689;82.02904602
2;-1.081185741;-10.34443363;-10.21770155;21.54303617;-12.28851356;28.04360065;6.405640291;1.809079081;-4.277470707;128.2994718;116.1411769;167.8129974;-13.04992986;-20.32270365;-19.45751012;-93.76839282;-134.7098746;-129.6962815;4.472823379;6.66596059;2.988857388;70.79738266;61.95883383;88.27447986
2;-0.827110626;-9.295554819;-10.34065126;-9.555928262;13.50827516;-12.40911724;7.984079764;2.747092472;-1.054245701;125.1059457;120.4420319;152.9944821;-10.60681826;-19.84877306;-16.44920891;-89.61947208;-150.3720544;-120.1401469;4.705114079;6.959947366;3.359886669;59.77722295;58.25977049;78.99964016
2;-2.331070237;-9.786250726;-9.843394436;-2.793194563;1.003598791;-5.086975926;8.064325767;2.44899467;-3.931962104;151.1606563;168.0442384;174.8394015;-11.6698984;-20.05366588;-18.58722156;-128.0061944;-145.6230357;-116.1030656;4.862247902;6.680153818;3.477775106;74.55587837;66.16786632;93.17158472
2;0.12042874;-10.24824564;-11.21672709;5.655964654;-6.793322863;9.420577676;12.02623141;0.684075922;-3.608117171;140.1945916;180.3638264;157.2542025;-12.76682086;-20.27658053;-20.09622353;-160.565032;-148.851368;-147.1866093;5.288606334;6.738715148;3.509084666;78.19422952;78.085066;95.69064567
2;-0.411208257;-10.77868552;-11.07531582;-11.23738358;13.92251786;-16.56298469;15.2501073;2.313089394;-4.574815025;140.0007236;180.2883757;171.2116093;-14.31113932;-19.9410677;-17.60548404;-122.1514359;-129.3223817;-123.0464617;5.63189485;6.69828932;3.509841554;70.1664911;71.28591269;87.59219015
2;-1.857978688;-10.4040009;-10.1718465;21.08826776;-5.346816079;23.95990659;6.854502641;1.318321309;-4.158223187;172.0287294;147.2675799;183.7983481;-13.16916904;-20.04522985;-16.31137801;-104.0537414;-139.3135476;-130.160288;4.981181472;6.856868113;2.935498001;82.89935019;65.59923798;95.03212307
2;-0.608784858;-9.080742049;-10.46805843;-9.087915053;9.653642927;0.50995144;8.699209127;1.782731756;-4.115103744;160.5799691;186.3213683;180.3561169;-13.26299145;-20.07513516;-17.06325747;-135.7374961;-142.5319398;-137.1805553;5.000329538;6.819600021;2.964661885;81.45313404;85.9739035;93.4782326
2;-1.596190385;-10.96886578;-10.42991986;-10.81353684;7.186637976;-21.79264633;7.408699512;0.954924556;-2.545222974;145.1298278;121.0272969;165.2076992;-13.86117959;-20.09761889;-19.96434481;-114.0978412;-125.0453892;-121.3217513;5.153950232;6.406539746;3.710259894;72.77237855;59.84654974;85.94603721
2;-1.093295501;-10.51130628;-10.09615536;21.93280188;-6.851082268;28.72977078;10.80967598;1.440970316;-6.150322385;150.5886428;156.3087059;172.6146228;-14.14371984;-20.04475774;-18.93493469;-126.6591504;-110.6070931;-131.2623975;4.951632052;6.875543665;3.0237444;79.24829388;60.67979649;96.53031168
2;-0.41590702;-8.899212816;-10.5588875;-12.73273112;3.34568234;-10.77063245;8.083166396;1.293071976;-3.416851044;143.9844952;141.168799;161.5358038;-12.5788029;-20.16180141;-18.74522087;-103.7189211;-104.9608131;-148.6083842;4.527603619;6.857977303;2.974717153;70.7936654;63.32519445;84.16910443
2;-1.396546395;-9.972272714;-10.65042884;-7.997655456;9.084067451;-15.65765698;9.290489187;1.058050571;-2.403623701;136.9133876;146.5394829;161.7394991;-13.63354378;-20.0066431;-19.98314172;-145.6865012;-98.86054374;-163.4203089;5.85584525;6.877299905;3.941279528;74.58310849;61.73104934;91.06809552
2;-0.485158863;-10.53705973;-10.63358717;18.12983951;-14.32846141;28.11756973;8.497245452;0.377383092;-2.806782532;132.8188045;146.0075816;165.6971047;-13.87282914;-20.35501536;-21.58083213;-158.2149456;-142.899375;-148.0217664;4.955170108;6.809819034;3.764234782;77.52045387;67.4490436;87.16917769
2;-0.361384599;-9.417869966;-10.75846658;-8.787285061;12.49445295;-10.15812602;10.1103492;1.120912246;-3.740547563;160.982836;237.6228151;170.8744631;-15.88349644;-20.39494534;-21.68404966;-116.7876747;-129.1253202;-112.0481479;5.261220925;6.82662529;3.980656454;73.86422618;79.18443354;85.84866213
2;-1.816930621;-9.860858669;-10.30117679;-10.71720797;5.906666365;-13.43251586;10.86261787;2.854856417;-4.574058087;129.5535315;119.1418878;161.7511351;-13.29603363;-20.57200162;-18.82299628;-143.6165993;-139.9770236;-151.2348638;5.860232572;7.23216187;3.565853125;70.15260901;62.82375975;92.79570128
2;-0.657581675;-10.56467411;-10.69920236;22.42512428;-9.37667172;25.09304401;7.468691359;3.003754061;-3.146273274;160.2701099;168.9222268;155.5650124;-11.65682592;-20.34301564;-19.88716782;-118.3147398;-168.1125341;-124.0811935;4.278314763;6.927422122;3.450318292;79.35273756;68.19589014;91.28775403
2;-0.823443317;-9.129804936;-10.18423367;-10.48062352;14.78271541;-9.26113083;7.953299073;0.916856958;-3.837925766;162.8678047;164.414665;177.0156714;-12.88731617;-20.00252466;-18.23554216;-109.399448;-122.1891679;-125.6946087;4.608322666;7.011354593;3.132071371;71.98170556;64.22873849;82.76153677
2;-1.655968851;-9.971558796;-10.44761007;-2.937855507;7.998823216;-15.82247841;8.479352961;1.985707099;-1.724595776;136.4693032;112.9996909;173.0128414;-11.31275562;-20.24485368;-19.04734256;-135.2474858;-122.6384276;-146.2268585;4.850021072;7.063740619;3.529411462;67.74021336;57.4708373;92.35931383
2;-1.293628643;-10.46298032;-10.18610291;20.65749645;-14.93445498;28.85878142;7.717426815;2.185367818;-3.882721493;134.3571946;169.7505167;166.277912;-16.40508981;-20.53642029;-17.53914188;-119.4063168;-146.7926836;-129.3268346;4.39311584;7.079359479;2.941226491;73.90894515;70.76100273;91.25030767
2;-0.504733606;-8.787281657;-10.54167077;-12.34080632;15.41380725;-14.46040738;11.50790725;2.466234854;-3.219049276;134.4971947;182.2582989;164.8246685;-13.24829919;-20.62329361;-18.40643388;-103.8401089;-133.1285957;-133.4110821;4.824615972;7.090738348;3.586087124;68.5837587;68.72452934;85.98844172
2;-2.260607345;-10.31994392;-9.995679241;6.368035552;-6.938356455;-0.278490957;9.76382188;2.195230626;-3.900440091;144.2715186;125.9922476;168.5468765;-14.42100043;-19.92221715;-15.82897624;-101.9869847;-151.7665004;-142.5645262;5.487554613;6.782519468;3.319461237;75.54150511;61.23408209;99.41107287
2;-0.642136725;-8.754204701;-10.19470188;3.980118535;8.851880624;5.369278953;7.335806782;3.128236607;-4.891995589;147.9290169;164.1049219;161.4033646;-12.56928104;-20.21844812;-15.29047845;-108.4039861;-152.4808565;-124.1131346;4.493020259;7.207223579;2.654512527;72.02555451;61.30762192;88.14147978
2;-2.262298123;-9.664091122;-9.810435966;-11.28061063;1.33668743;-19.02684965;5.454762428;3.13629061;-3.065682991;132.7599798;119.6658005;155.8037827;-12.56585419;-20.57932202;-17.33040116;-107.9282504;-159.8466683;-133.216615;4.644420587;7.206301974;3.346500634;64.45455543;53.88721057;85.35456818
2;-0.757734477;-9.489760481;-10.25399142;18.89097983;-11.37423513;19.55918744;8.059039878;2.901040032;-3.79966461;146.5204872;90.81339592;158.6002129;-11.22874083;-20.10934814;-19.36739685;-108.9716504;-139.7629206;-139.6602158;4.533764663;7.693295959;3.089089857;73.17513015;56.46933693;91.99220862
2;-1.192993862;-9.600759274;-10.41695583;-13.73173232;14.59481246;-18.51678435;11.13262451;3.809776715;-2.660505707;129.0433805;150.016423;149.2626151;-11.24682718;-20.65541131;-18.23113747;-116.9540921;-126.7741667;-163.213007;5.127437571;7.285268731;3.576355981;64.37445967;58.77949502;88.20081716
2;-2.27172396;-10.09719317;-9.389475868;18.97540941;-5.787457036;18.34251879;7.638180528;2.527142666;-3.056781832;140.2249188;123.3667262;164.2383656;-11.78290926;-19.97203477;-17.05073206;-107.5721332;-195.2215491;-120.1496441;5.106481006;6.930445814;3.111182574;74.77490942;68.62540596;92.14006948
2;-0.993183518;-9.138719217;-10.53446269;0.884253616;-0.486207661;6.587920218;14.86244881;2.960863228;-1.488565403;123.533916;106.5662338;170.254263;-12.6341316;-19.74155407;-16.68522241;-91.63573762;-118.0325238;-145.4277511;5.601319178;6.038403994;2.910161747;59.45362225;61.98830129;96.14539724
0;-0.677208904;-10.09291177;-10.23982381;3.414693967;-2.986035343;4.744748271;5.478393354;-4.293427966;0.145116533;102.9364783;123.9725741;124.0032325;-8.343253081;-18.99927426;-20.00882791;-90.15062188;-72.06035412;-65.80462911;2.961106382;2.698467968;2.950746855;47.47846828;42.78389834;55.56944956
0;-0.453353084;-9.785865034;-10.19949591;-6.203290503;6.261518744;-2.062831405;12.03153464;-0.671523754;1.586265911;114.8362412;196.5947027;158.913018;-14.6067806;-20.37390972;-23.74238247;-154.5761898;-128.8565155;-91.60378965;4.764521366;3.866097759;3.905808626;62.04547638;67.15739591;69.41845248
0;-0.852623585;-10.05474126;-10.4578659;-6.675435838;1.666642817;-3.782414451;7.439147601;-0.198723437;0.17025034;113.9040661;154.5306288;163.3365717;-9.812377868;-20.2145172;-22.01789471;-120.5445803;-101.2852397;-94.70059902;4.120593557;3.748310159;3.20089213;56.71442123;53.3402468;71.06612603
0;-0.989384214;-10.17275514;-10.17732436;-4.351622385;10.96810418;-6.014371703;14.69058021;-0.015077813;0.015395553;124.0353134;281.9258908;191.3431034;-16.12208398;-20.57611659;-24.83315123;-151.8253033;-139.9475049;-122.2742139;5.505417425;4.212345442;4.09673843;63.27917591;78.69827488;81.0617698
0;-0.748533162;-10.93420319;-10.91599724;13.52951561;-8.234713931;32.92326611;19.52907782;0.674989811;0.736159041;146.318872;258.2508612;209.4956687;-19.17438452;-20.50795873;-24.50030305;-177.8628841;-177.5483617;-157.8910097;7.407025142;5.390315443;4.640456846;76.89066168;99.26302035;105.4491476
0;-0.261331358;-10.12129053;-10.23006704;-13.67197311;1.438993393;-1.559927638;18.35891258;0.927820437;1.380300137;137.0949604;242.8138133;221.4728855;-20.16102083;-21.06890665;-23.26322784;-170.8338117;-177.1843496;-197.2600154;7.997428736;6.009928331;5.040453002;79.2021091;101.1603246;101.0548014
0;-0.905741548;-10.03667646;-11.17459155;-13.04692415;14.33519291;-13.86863455;15.61554985;0.79366195;-1.460093569;145.1102273;272.8398523;206.7128713;-20.23225059;-20.45235998;-26.14743186;-133.8909272;-189.4507391;-157.0249014;7.34284909;5.192460073;4.733404025;69.78916123;93.80486428;94.28134694
0;-1.270846774;-10.83947191;-10.76695605;16.62946937;-7.168820915;28.02854105;17.27309967;0.3496508;0.214191562;159.463353;291.8631805;189.7697475;-21.91346621;-20.68011784;-23.48994068;-164.0388555;-216.3926594;-191.4995755;7.761903543;5.533886761;4.834022227;82.58845674;95.66537116;106.5807794
0;-0.09257344;-9.863209866;-10.83830832;-12.95974203;7.609961643;-5.955870094;18.08178627;0.584781079;-0.81691277;155.3538044;281.7059576;200.6835276;-20.55394539;-20.69774124;-26.1819545;-164.953967;-187.6917885;-158.2409364;8.136372761;6.108465395;5.083002298;80.02629949;101.4109659;95.25143758
0;-1.476699604;-10.36080054;-10.62639501;-11.22368429;9.024708533;-12.45808712;17.29210113;-1.668778832;0.168679353;158.7209885;283.1093167;194.2671522;-19.10361736;-20.34430148;-24.55437935;-138.0054602;-206.7118643;-149.2813852;7.113436091;4.493873738;4.593170703;71.29006666;88.66195603;87.14444199
0;-0.360126954;-10.78703429;-10.93220689;14.34544353;-13.46934431;34.84505539;16.31535903;-1.454825991;-0.116753452;142.7425505;281.2199261;190.6541024;-20.00312487;-20.83749116;-23.15832027;-141.2136156;-207.9236092;-138.2206228;7.334666497;5.233027004;4.270614047;74.23289961;98.58697202;102.04993
0;-0.087292417;-10.03080024;-10.73025621;-18.30704736;15.17174273;-10.79621357;21.13014884;0.098651668;1.030652346;138.2571929;287.2746347;196.3633488;-20.83311628;-21.64164691;-25.4720262;-173.5228723;-180.8763186;-179.921943;9.113238909;5.675092439;5.365804843;79.06350567;107.5718906;100.0412639
0;-1.948869784;-10.43419095;-10.25671824;-4.645744877;8.755759483;-4.045074449;17.54721177;-0.037065848;0.367492327;154.5357633;258.2763329;189.6261573;-19.90152231;-19.86866096;-22.47874258;-140.8045194;-183.5130746;-170.2084469;7.402304517;4.839454988;4.278584612;71.67522418;81.48628826;92.56014627
0;0.322450038;-10.05679551;-11.01973972;5.699545368;-14.19836939;25.27922258;16.53812223;-0.608014889;-0.862700474;159.1152814;250.4286328;194.7993884;-19.33180151;-20.26208856;-22.97720326;-163.4318063;-195.168478;-166.6063944;6.905023262;6.063099077;4.667125841;84.20644324;88.09001194;103.0790922
0;-0.923934423;-10.56968522;-10.6346188;-15.98395202;17.36031612;-13.52731719;17.82334928;0.276121267;-0.15327547;152.1239946;251.6028668;208.4628917;-20.58694032;-20.47853249;-22.72210527;-146.8045589;-189.1044006;-189.574744;8.19366181;5.350464828;4.699748405;74.21005043;88.94232936;101.039985
0;-1.67171583;-11.0045942;-10.49105177;6.788726882;-2.604126275;15.50368709;15.40952928;-0.329348838;-0.78939707;145.1249464;248.8162204;205.5956551;-19.79338173;-19.95388375;-21.33962633;-135.1540144;-168.6249375;-140.6432238;7.007146896;4.996965096;4.417931413;76.57005711;90.8466308;101.2003077
0;-0.235765448;-9.72734233;-10.83411537;-8.600225046;2.296894988;8.510586746;15.30772986;0.277242488;0.830801864;153.9587783;262.6251003;203.2729619;-19.60312211;-20.01975922;-20.8711453;-121.360659;-165.858472;-158.0448977;7.586376921;5.501310441;4.157406205;74.47573183;94.4880327;97.19318435
0;-0.252706152;-10.24672265;-10.9237775;-11.84539513;12.63255363;-14.44324597;18.78333156;0.386968486;0.08174063;151.2596023;280.0407911;198.1303722;-18.81698533;-20.66031442;-22.05437438;-128.5977579;-162.2861941;-160.7230466;7.157523147;5.390629619;4.296091801;70.37473219;81.36885819;93.25093841
0;-1.420932502;-11.15606335;-10.69843291;15.24357393;-5.176905216;26.21477959;16.97181414;-0.63425001;-0.657864573;158.7512148;264.3928545;190.7877219;-20.05541794;-20.17800928;-22.31706171;-140.4140196;-208.1332275;-172.5161473;7.577326184;5.213140153;4.365962852;77.93335617;95.35923271;102.3759162
0;-0.064114334;-10.08381225;-10.20251472;-14.08534088;-1.587666826;1.208334311;16.82759578;0.680779884;2.832824873;150.6010405;292.125189;201.9792188;-22.15277351;-20.87896097;-23.51010155;-144.7301784;-166.2471309;-193.9621851;8.282811004;5.883168919;4.703088346;76.57412197;100.1796882;102.9694828
0;-0.519305527;-9.966563237;-11.20155862;-11.87273048;18.35487615;-14.26436289;19.83074112;1.028321589;-0.606452649;171.702938;288.7892045;200.4644886;-21.42968086;-21.13190828;-24.46278424;-154.9728561;-168.8541469;-208.0224306;7.564768708;5.406739643;4.759731426;77.48929279;95.07614979;102.4526296
0;-1.317490256;-10.97078586;-10.74935678;17.28893621;-7.065499173;27.64386291;18.2817462;0.765305064;2.39221678;160.1245575;289.9059394;210.782037;-20.25921236;-21.08727575;-26.00424086;-169.3886621;-208.0106997;-190.6013137;7.665576872;5.632601331;5.166921485;86.21670053;97.41858986;108.7619145
0;-0.395998604;-9.89913158;-10.31409716;-12.70134345;2.284941845;-3.618784657;16.33471099;0.939508121;0.705453913;152.3102433;276.7160261;214.1102613;-21.99841646;-20.60877268;-22.88390288;-148.7668372;-129.2068697;-182.4926721;8.248894243;6.012425967;4.472358357;76.23881061;91.22199015;99.68957593
0;-0.696022479;-10.0592524;-11.16279745;-11.74265497;15.86619778;-15.2008373;19.83717789;1.398994975;-1.080472307;140.6288915;267.0652406;198.5541408;-19.96121255;-19.72007078;-22.63141285;-124.9004217;-168.215993;-174.9560193;7.456626301;5.10246437;4.296809825;65.44617384;88.2878325;95.20405932
0;-1.029382213;-10.75842948;-10.6079454;17.49658616;-4.285835701;31.71285404;15.13755943;-0.450914769;-1.428865848;161.9250313;272.6001117;211.8750733;-20.1858421;-20.78055733;-24.02038686;-151.9415773;-185.0573876;-194.0175501;7.298322051;5.694170187;4.585905408;80.6754891;81.2864859;108.7918637
0;0.07595237;-9.805793169;-10.84644911;-16.26568368;4.660539874;-8.406652789;18.37444922;0.615446684;1.872804387;155.7855347;288.6782787;190.7837191;-21.50994961;-20.9465176;-25.21685656;-166.1188204;-160.0368294;-185.9850966;8.191760767;5.927588549;5.55650029;81.02634928;97.88531944;99.21431674
0;-1.737879945;-10.4988061;-10.28335396;-4.790611525;14.59652253;-7.43221374;17.10660935;-0.066202824;-1.359039021;161.1832089;263.6755246;186.0611748;-19.89735198;-20.22970829;-22.55087694;-143.1202382;-165.2763405;-157.3022328;7.065963942;4.683957535;4.245228019;75.13449495;82.7843963;91.7120465
0;0.362216119;-10.25203985;-11.15723058;4.505090637;-17.5573472;26.61366555;18.29153112;0.996863465;-1.477082025;160.7569496;256.5005161;193.5138569;-20.92668441;-20.28385972;-23.27189663;-156.1764549;-185.8957008;-180.6092478;7.150835495;5.807349558;4.555963819;83.5775104;86.42282306;108.2502777
0;-0.928629188;-10.53939353;-10.8512244;-15.30243786;19.19699217;-16.26716079;18.41249528;0.373739859;0.884793902;150.2465468;269.1598193;180.9864188;-21.70705487;-20.60709772;-25.21848028;-149.0781456;-231.5723139;-175.5372682;8.011327758;5.33781939;5.01918027;78.30886572;93.75394934;96.46872388
0;-1.355449658;-10.90069191;-10.58840571;16.59751539;-2.39570461;22.13143508;15.7336031;-1.092227228;-1.602052294;167.1139981;268.2790561;185.0801537;-18.97361739;-20.22225537;-20.70133124;-122.2144944;-233.8035692;-160.3954434;7.439920174;4.968704126;3.910680462;78.11524501;89.22136841;102.481242
0;-0.171717554;-9.865476853;-10.36090128;-12.92548671;1.792233339;-0.781209878;19.93975626;0.253211289;-0.184802412;146.1053627;257.6679408;205.3688916;-20.99032826;-20.66291905;-21.85758545;-157.0984951;-190.5953077;-159.0663013;8.617378684;6.157335054;4.550241559;75.64435648;98.09411256;97.26766211
0;-0.940286033;-10.17585847;-11.05291726;-9.769540199;20.54826925;-17.08781816;16.47215176;1.075043578;-1.507436251;145.3984177;264.7077735;184.1974519;-20.64506224;-19.84495276;-25.02598084;-124.7952148;-184.8414914;-174.7707492;7.406807362;5.267136585;4.727327279;73.06922721;88.54506591;93.363408
0;-0.653868458;-10.80895026;-10.98222023;15.95534872;-13.80786349;32.83780257;21.09601652;0.022315483;0.094879937;144.5334598;285.4742092;201.0173914;-20.60372458;-21.40479561;-23.05258702;-170.3783148;-180.9085742;-165.3842903;8.001707705;5.535305396;4.543240994;77.22231018;98.3994921;107.7852945
0;0.123352414;-10.06596121;-10.67137417;-13.0783918;9.253340559;-5.306364612;18.0857978;0.350811643;1.530421816;135.5405277;260.1938795;208.8648505;-20.63343179;-20.19973131;-23.33686525;-163.6131795;-161.1829505;-162.0896228;8.423646609;6.093549227;4.726635924;72.65172425;100.5379847;98.95903969
0;-1.179798074;-10.37079496;-10.85901449;-12.34574156;15.66695943;-13.79446307;16.54671805;0.390958585;-0.923237213;142.9537741;204.8855787;203.881479;-20.41631484;-19.87397368;-22.63569604;-142.8646086;-147.4555523;-155.5000599;7.179639943;4.980733688;3.970483977;65.29202362;79.53744368;94.88013836
0;-0.648334407;-10.65657773;-10.54613609;15.21189707;-5.941310948;34.79463973;16.57092849;1.962094663;0.994111267;157.5486819;268.0051735;203.1310633;-20.63936085;-20.51736631;-23.95828243;-142.2820151;-169.8494405;-163.7639609;6.868115489;5.804583902;4.477295843;77.98134904;82.54550684;105.4922577
0;0.001817623;-9.906394597;-10.57551147;-15.4151221;3.988259186;-4.253626996;19.69402535;1.882085135;1.246589226;160.0288746;274.3186879;207.7807396;-21.55333957;-21.49838799;-25.41598398;-178.0497376;-157.1901115;-192.6819468;8.489675053;6.216583064;5.633498327;79.21076763;98.83502396;102.3919179
0;-1.200792402;-10.23061018;-10.89352002;-11.78523207;16.01473631;-14.53393175;16.37765402;-0.177171183;-0.554926384;128.2761978;274.0370719;187.9076096;-19.48680194;-20.48061604;-23.678276;-133.8662716;-140.4367252;-165.0102156;6.996571689;4.802383389;4.092405918;65.59528325;83.13611038;92.43594128
0;-0.859708722;-10.76625051;-10.81488173;15.93240313;-7.194370503;33.24089876;15.75769179;-0.34177939;0.834861793;145.4232528;289.5763908;211.7702258;-21.47651426;-20.76959855;-24.35763534;-152.5477858;-160.8039999;-196.5053414;7.317681365;5.388313787;4.501007306;78.11091191;87.31901004;108.0060438
0;-0.042547898;-9.957702585;-10.77796566;-15.0671561;3.03893537;-4.900999179;16.14401245;0.817841352;2.605617636;136.0277545;264.3066236;197.9667839;-20.40928249;-20.74066829;-22.82347042;-139.8179708;-200.6974945;-186.7019872;8.43468234;6.245392246;5.041464549;74.79372117;105.3263079;100.1232807
0;-1.251845149;-10.32054523;-10.75681356;-12.53304668;16.03547257;-14.11178016;16.62951936;0.217761117;1.207866691;150.6718543;246.1769502;205.9942373;-20.40888332;-20.30848011;-23.32245872;-143.4491896;-196.0386742;-185.1033286;7.327462613;5.121314847;4.334254923;71.23108483;88.18358476;96.408352
0;-0.581147276;-10.5958638;-10.94504369;14.67730284;-12.7493191;33.87990604;17.22055682;0.370880902;0.942327016;136.7901215;210.6942804;202.7762265;-20.44939379;-20.14766361;-22.32004195;-162.4621713;-197.0679689;-175.7436999;7.53791814;5.481199742;4.078449898;74.97527279;86.53301791;99.95186313
0;-0.031355879;-9.930464199;-10.88172323;-12.91219449;13.68649157;-10.30904402;14.99965342;0.302780952;-0.722733551;124.3389133;262.4021792;193.1408429;-20.3200069;-20.24393497;-23.99479593;-139.6166503;-163.0337668;-167.6163275;8.14532735;5.797623635;4.696192214;71.40668982;102.3544484;95.41986453
0;-1.874475818;-10.41307914;-10.49166736;-5.353231388;8.436626832;-11.97644054;14.70957101;-0.781633125;-3.113500123;149.582712;167.0077373;190.417441;-19.89557391;-20.0706679;-20.54886758;-107.6388174;-230.9333668;-151.7841552;7.647884359;4.518164588;3.376422146;67.13188204;81.56507911;91.34989953
0;0.015611781;-10.1228172;-11.10965366;9.833608174;-13.77438948;33.41882516;18.83963063;0.696305535;-1.661657906;160.5082444;211.9869055;214.3981145;-20.97860538;-20.7358387;-21.76720973;-178.7783878;-144.9197294;-167.4406712;7.737144126;6.041211442;4.114163929;79.17656294;89.26203361;108.1580628
0;-0.436733835;-10.3337238;-10.8135399;-16.5473079;18.70914645;-15.36546422;20.68335782;1.679503977;0.279852163;143.1220996;266.826926;192.0070709;-20.62051364;-20.62479222;-22.72172283;-168.3343498;-167.7622947;-162.4324929;8.6080782;5.84429238;4.786457287;77.27831895;99.13582471;95.27238817
0;-1.802699961;-10.13448032;-10.35199002;-2.195465899;9.174668129;-2.071451548;20.22167745;1.331464448;1.560778831;151.2630687;279.6411558;213.798304;-21.31953328;-21.16380748;-23.79299397;-183.969607;-154.02195;-201.9014191;8.1916747;5.34060211;4.892873891;81.47551817;86.02187281;101.7310334
0;0.689635665;-10.11865014;-11.33767791;7.182961373;-15.73151984;22.95025368;12.37550641;1.29336427;1.888851612;169.2382776;278.4503283;199.7254973;-19.81019591;-19.88209213;-26.4982342;-140.3463589;-207.9522677;-172.4182342;6.877536994;6.445601128;4.957997144;88.40894654;92.90638371;105.6857039
0;-0.81103876;-10.20730854;-10.92585586;-15.47308621;19.8549272;-11.53900044;20.41685288;1.552705372;2.417843584;160.5598171;289.4025908;215.3355064;-21.57673319;-21.55144603;-26.34735157;-200.580484;-198.3808354;-167.6647921;9.031022982;6.157748387;5.597887685;88.78964404;110.8303663;104.4502434
0;-1.501448643;-10.71291719;-10.57902151;4.120732505;1.574304262;9.514822935;18.97383239;-0.155879216;-1.4512134;156.0313497;248.9955229;214.8017344;-19.9933155;-20.7499992;-23.46895815;-173.9584156;-179.1410253;-144.5114831;7.672263221;5.272532591;4.725228064;80.7572805;95.26131424;104.0077311
0;0.652986232;-9.69668771;-10.91482853;-0.427728513;-9.576286444;13.75512677;17.37429121;0.919380317;-1.32048983;157.0957511;255.4133982;202.6124646;-20.16906296;-20.39847975;-24.44070643;-148.1659518;-171.7931112;-170.6144045;7.078222539;5.742298421;4.323855707;77.9843506;86.90516841;104.1653295
0;-0.951085164;-11.02324009;-11.50535425;-39.63215819;64.48634109;-47.4020704;15.45525325;0.188172556;-4.385726609;83.7804062;215.4639453;85.97519233;-19.6612931;-20.2087322;-20.84463189;-103.7441434;-55.98991678;-131.0824236;9.525952791;5.850737507;4.348783931;45.47738025;81.64865179;56.08109643
1;-0.349977536;-9.900587049;-10.62603724;-2.462081404;3.07203444;3.17321026;7.738634126;-4.798715801;-5.429208235;107.9116471;135.2542747;133.5855474;-5.415154125;-19.34150554;-15.55864106;-90.80251212;-110.4154008;-88.23641787;2.694005916;2.591229307;2.192896107;45.10900741;58.19470349;68.73272563
1;-0.652141135;-10.04650125;-10.51237935;-13.7537427;9.830155781;-10.96864507;9.868601922;-1.883553874;-2.812667577;130.7033566;257.6282714;165.1503043;-11.21591643;-17.83702094;-15.8746984;-124.3399921;-182.0483123;-118.1772466;3.874911866;3.326889867;2.720251509;58.18652922;70.57798643;86.09264185
1;0.220237197;-10.83352609;-10.91891286;13.16336423;-0.516799478;33.99909832;7.1085114;0.672718739;-3.898414035;178.3114963;235.476039;197.0034421;-9.195894987;-19.88524144;-19.4959518;-133.7023297;-185.4050946;-153.0485923;4.048886403;5.162254863;3.243341109;73.96304355;71.06966932;110.5104302
1;0.320265928;-10.8049701;-11.21657207;-22.113665;6.2961128;-21.32729291;11.52619912;1.178694428;-3.231176387;167.798167;223.0594052;226.9715769;-11.89275462;-19.80342507;-17.28498385;-154.0000066;-227.1559388;-185.1149682;4.903054056;5.386474493;3.024017807;76.19901478;78.55506433;125.7063765
1;-0.284057633;-11.48232041;-10.83415817;11.17446271;6.962271239;28.91597549;13.90046055;0.225281551;-2.056565877;180.7180995;232.0938011;225.125655;-11.17796138;-19.83133395;-17.93205378;-152.4777516;-261.8526421;-170.8415211;5.420355795;5.204603862;3.456741789;84.39580962;73.05103933;133.8458837
1;0.101074094;-10.19151862;-11.02423548;-21.38799261;7.061834432;-20.04619768;9.997194865;-0.022206138;-0.009442952;170.339382;248.6205006;223.329853;-11.84435481;-20.42536396;-18.55674755;-137.2605229;-245.4874103;-173.3189954;5.050565616;5.514745959;4.094177939;81.98438546;80.48347569;124.1039098
1;-0.426352735;-11.752182;-11.01279543;13.13572453;7.42472238;23.46255094;7.228557893;-1.416090225;-2.979392214;161.689607;151.8560643;224.0030495;-10.69193155;-20.3006519;-17.17088802;-113.6543617;-180.9475611;-152.3710079;4.506578886;4.892106189;2.958479278;78.30744905;57.69871166;136.6214812
1;0.606253923;-9.872780895;-10.89514892;-9.612412506;2.754727131;-2.856344938;13.99184574;1.192181125;-1.522365495;140.7132879;229.5513158;221.8621415;-11.77296161;-20.57533476;-18.18104543;-125.4836433;-270.743948;-153.2251879;4.896946783;5.598004047;3.123469705;67.29342902;90.64489138;116.1693815
1;-0.805524989;-11.07539602;-10.94915154;-11.28470833;16.87226731;-19.1201557;16.81961715;1.214119882;-0.694572619;151.5892979;212.5994898;227.04658;-14.03258166;-19.95576363;-15.33661827;-111.07485;-228.8590014;-154.747568;5.419807432;4.72163096;2.98986251;74.00032761;64.84378544;123.4569951
1;0.368628617;-10.51377227;-11.12400465;13.39750311;-8.032046736;40.11879392;11.20483476;2.138885284;-0.79626885;162.3798573;244.6055997;219.9964533;-13.03362686;-19.42629772;-20.58191649;-121.0065767;-255.6206143;-147.2904929;5.495508769;5.547765474;3.719319954;73.63282371;87.07231516;125.038193
1;-0.099135012;-11.00780245;-10.92153;-20.18911415;13.81878662;-32.15539717;17.28716694;-0.172253176;0.629946917;146.669097;245.867936;211.7408129;-9.590203373;-20.50943656;-17.32886952;-94.78845177;-268.2190568;-149.4000626;5.619832134;4.373400738;3.446131867;63.74033132;73.38245412;114.2955775
1;-0.414310693;-10.87164537;-10.79545291;14.7023739;-0.187136041;33.53603546;9.156561121;0.070838673;-0.588616313;133.5314959;202.9199636;202.0904265;-10.95643096;-20.54219746;-17.51578276;-90.042322;-243.1577273;-143.3863035;5.068487313;5.161081469;3.535200037;63.43334249;71.83897075;116.8634044
1;-0.162742713;-10.5272854;-11.02020643;-15.07039049;9.181430964;-19.39645097;16.33350124;0.33545522;0.398504243;147.2097793;257.2151662;219.689715;-12.39469245;-20.09510818;-21.80555533;-132.6287199;-256.7631125;-151.9164133;5.599388757;4.927400004;3.966902026;66.66502868;91.76594141;116.0934134
1;-0.943416107;-11.39335983;-10.77144588;9.644429758;6.188610577;21.42957562;12.77587863;-1.13295088;-1.733387406;135.4110394;215.7322601;216.6900906;-12.65391802;-20.55787115;-18.89239957;-119.0673419;-265.0530575;-157.5320561;5.402558406;4.566010448;3.368847559;67.74520437;70.21342448;123.6136598
1;0.282063048;-9.960077636;-10.81694187;-10.12999501;4.498998125;-7.448235862;10.66685205;-0.079091305;-1.803228906;147.2582981;230.8515625;213.733755;-8.999511192;-20.52270043;-17.64155978;-95.50454069;-266.761936;-157.3736736;4.662293222;5.367380086;3.34136668;61.42100206;88.89175377;110.9725447
1;-1.373463738;-10.94958497;-10.75539662;0.327925716;11.10566427;-2.838146316;11.7043053;-0.662867714;-0.459535256;132.6634934;201.1659545;216.4370383;-10.68440065;-20.72254823;-16.06321106;-104.6766746;-203.1816392;-151.5014454;4.711642052;4.919568131;3.476471419;69.23489597;72.2840063;119.2438552
1;0.359120915;-10.20321299;-10.59882032;-0.6230274;-3.756051296;20.10372895;16.26032604;0.457060299;-0.705091045;128.6169445;262.9494062;201.8199778;-12.51475124;-19.70697484;-17.00977578;-119.6281402;-257.4311031;-136.310778;5.98370786;5.409341319;3.685910985;59.80598864;92.19086307;110.7840612
1;-0.742776544;-10.56416349;-10.80644556;-18.9648312;14.95494935;-25.73522808;10.87432103;0.375259911;1.567844323;151.710972;250.5770084;194.9601766;-12.59142725;-19.8228297;-17.27282861;-116.6184552;-211.1362828;-134.7898284;4.933983539;4.701777169;3.665435621;64.36898552;80.22550288;109.4505136
1;-0.239434369;-10.63108072;-10.89023638;14.73770566;-10.55427433;34.64958259;13.25562024;0.753626521;2.37956502;133.1178896;236.523978;201.7337269;-15.80757613;-19.97597524;-19.0643784;-119.897555;-261.8108358;-140.7820357;5.991536366;5.528753665;3.901593994;66.2235667;77.88350396;118.1013676
1;-0.284486184;-10.67702472;-10.84062154;-18.84703222;14.26232993;-22.40175667;17.57948878;-0.242766337;1.849153007;135.2264776;266.3235199;206.4846551;-13.42171916;-19.71750416;-18.17454412;-128.2374239;-264.1827936;-139.7330294;6.027689173;4.295597401;4.122102224;63.81884892;85.11534875;107.2384416
1;-0.560834188;-11.47641226;-11.07754201;8.891699266;5.452736133;26.49393218;11.33136569;-0.745651763;-0.690272408;144.5263544;268.5989042;224.7107156;-13.65207125;-19.87012571;-19.19002436;-155.9547435;-274.5241889;-154.2689897;5.831084652;4.794320372;4.160991302;71.62506529;84.03987164;124.762242
1;0.260777914;-9.964261419;-10.77082815;-10.55166144;4.608891036;-8.845321712;13.4461334;0.154612048;-0.636738774;119.2496309;234.545183;206.5466838;-12.8967969;-20.47451758;-17.41865191;-142.9006795;-243.3582214;-161.0710213;5.492078242;5.260746952;3.720963251;61.2300023;88.89713388;108.2711744
1;-1.228987747;-10.93875138;-10.63144013;-3.685907231;7.621649615;-3.811895751;8.765846609;-0.826881197;-2.503462552;144.7412861;267.2604916;210.5525159;-12.67930177;-19.9170641;-17.4287648;-134.3117782;-214.7941727;-143.981532;5.093587272;4.460008722;3.316542901;68.35674409;80.3061602;114.5041249
1;0.354120956;-10.30538072;-10.8367037;0.415392318;-2.539913634;22.40114233;16.93073864;-0.654061546;1.941343073;147.4721749;266.7548028;220.7870322;-15.17766498;-20.47916103;-19.60740907;-162.3040644;-258.9505671;-136.2899799;6.229285912;5.060819782;4.576870895;66.50923841;92.31627313;116.335157
1;-0.768120914;-10.4566373;-10.9161107;-16.67991626;13.6722972;-26.23304447;14.02321634;-0.20797607;-0.485556462;129.5719699;242.9552348;223.5891757;-9.544496623;-20.48949922;-20.45479481;-129.0282719;-270.5752894;-159.9651762;5.051621967;4.58645885;3.746530894;61.09303876;74.10550264;112.4015276
1;-0.564295264;-10.28412327;-10.80870533;10.15608255;-7.247669976;38.12192765;10.11486959;0.997332738;3.224329405;121.5937237;279.7313871;223.7157163;-17.00005989;-19.80645904;-19.54895321;-119.3450543;-236.1577811;-145.1201209;5.921221242;5.498496652;4.068574667;62.24827407;88.95433452;115.188569
1;0.361248332;-10.89613151;-11.01740754;-18.60812717;14.35345188;-31.3197073;10.91355188;-0.612471075;-0.519306004;123.5730172;240.2076059;213.0343976;-13.06364394;-19.91889988;-18.4166222;-101.6826065;-248.0909155;-156.7559517;5.044806217;4.592432917;3.622144414;56.77697964;74.22008063;113.3388522
1;-0.563955733;-11.43419239;-10.65919817;11.26263259;-0.151985382;38.71735489;10.92412853;2.724860961;0.084250896;153.5818313;252.6590902;236.0160795;-13.22700746;-19.82091555;-19.89721171;-156.1546243;-228.6563903;-163.9306328;6.078062212;5.601703396;3.926391231;70.47096318;74.65719398;130.5436984
1;-0.14887091;-10.37741617;-10.91710877;-15.09430174;5.916367799;-21.15591878;8.733318115;1.567670848;2.338642513;121.8086372;231.4836042;212.9238201;-11.18940101;-20.32274321;-19.85897007;-130.6491424;-246.5923824;-147.570777;4.750586993;5.360327391;3.93857644;62.56347275;85.28117107;113.9334844
1;-1.379102141;-11.51258174;-10.73166899;4.34434829;11.99844533;16.95271033;8.389302703;-0.688666354;1.209090989;124.8314616;233.3035258;217.686586;-14.77799845;-20.53311389;-16.65563435;-94.93137964;-207.5381413;-154.2392837;4.896158551;4.836368686;3.563720826;65.65197754;71.39902768;128.140304
1;0.246401343;-9.881968038;-10.60888146;-6.618909079;-4.288870559;5.773553476;14.45820852;0.861665375;0.502835258;126.0243879;256.8623055;234.7427807;-11.98080375;-20.37967741;-19.29214056;-120.9634259;-248.4858332;-150.7739756;6.257437285;5.584384733;4.143593658;58.0821738;88.10772212;115.2636345
1;-0.89287926;-10.85757393;-10.90599855;-16.91027878;12.6324935;-26.65438273;7.90429531;-0.063462868;0.838774923;139.5838804;205.0750171;229.0914755;-12.52988755;-20.34371468;-14.93446653;-117.9797836;-218.2994498;-146.2814534;4.871236228;4.751422797;3.385424846;62.34592936;75.00964884;122.5341207
1;-0.262729145;-10.86939337;-10.87897971;14.55174957;-6.691117981;38.45327052;9.958854313;1.317933018;0.653715408;147.8738698;239.1323214;233.946282;-12.15422864;-19.92997237;-17.52107658;-106.3820144;-268.4712222;-150.4363932;5.689221419;5.594965078;3.647622394;68.37929121;80.2457585;130.6631982
1;0.122904388;-10.91127302;-11.15566323;-15.1167818;10.59340779;-11.74024629;9.395100111;-0.358596295;-2.645910506;133.5345774;236.057669;224.9953149;-12.73699979;-19.89956281;-15.99143036;-103.5486946;-231.2445253;-156.7551223;5.225051287;5.096712032;2.815539072;61.85973494;86.12003631;117.607433
1;-1.271080909;-11.0563758;-10.8586125;-5.683782914;13.37457001;-11.55220403;10.80267944;2.529417238;2.917304358;130.1331232;213.6783096;221.3759572;-14.96229194;-19.60226575;-17.77905897;-116.4978403;-263.9240062;-148.1595288;5.908335524;4.818594233;3.753344288;62.74645406;79.51078107;119.0740292
1;0.230397885;-10.29169706;-10.98414447;4.811456693;-9.733807411;37.9237119;9.9182348;1.403574229;0.188560841;152.1733882;244.374979;217.8402799;-11.30106998;-19.98983762;-16.84583822;-177.06241;-247.8353208;-139.1469855;5.202828235;5.586570838;3.810871088;70.99279051;90.88195251;124.338437
1;0.201389708;-10.93930023;-11.22206059;-18.40542193;13.23245184;-26.32093227;16.37221032;0.914831119;-1.51622567;130.6041514;216.1083869;233.3157874;-13.69645653;-20.56222445;-17.81534165;-105.0823124;-241.3033469;-153.0428957;5.756365451;4.948296569;3.093661289;61.72357655;74.59685425;121.9028409
1;-0.924785572;-11.69713283;-10.87116218;4.500866111;10.04839823;17.06566226;7.873052406;-0.152961675;-0.269771333;126.2201363;172.2556778;238.2095571;-11.81336012;-20.10226908;-15.94474651;-147.994241;-180.833666;-149.0657225;4.945878884;4.825794758;2.942027954;68.13491992;60.17614231;131.5748932
1;0.594215739;-9.597448489;-11.10435913;-7.530717811;-6.914124239;12.82062411;10.18424185;0.297239821;-0.596385036;116.8618583;209.9945877;233.537614;-10.05806112;-20.578171;-19.45028061;-108.4000793;-253.5519203;-146.4018186;5.289634755;5.72701159;3.701803019;60.95259681;87.12315467;120.0032396
1;-0.150694392;-10.77532903;-11.13194412;-17.05252839;19.0245854;-29.44723861;10.24812067;-0.275461569;0.718370597;125.8693097;236.2917239;235.7827374;-11.37372799;-20.12546923;-22.19721358;-132.0015475;-269.4966657;-175.5324735;4.524101562;4.942703129;3.688164858;67.86416185;69.79142755;125.5596977
1;0.259261597;-10.97792338;-11.0990116;10.92196891;-6.362455807;42.12850701;9.912852103;1.194757445;0.296892468;136.5652215;197.3795665;231.4587922;-11.9261488;-20.33059711;-17.89559429;-115.7243021;-239.5141661;-148.6124722;5.64330664;5.725815774;3.198187374;64.65376698;67.38961643;133.6746221
1;-0.162513929;-10.6091305;-11.03934868;-16.30490376;8.942793989;-15.70378359;9.832390366;-0.653026319;0.544469921;122.5816351;236.4945075;206.4944994;-12.35428379;-19.79284021;-17.53061504;-131.8410267;-261.3284783;-153.8947012;5.542520721;4.720878504;3.860646753;62.94534524;91.9689329;110.7680681
1;-0.69944255;-11.38545594;-10.99250102;-4.749938453;12.60071119;-3.342918217;18.95436642;0.862487796;0.121475278;125.1611662;204.0065741;219.4543054;-14.21849537;-19.68272726;-17.22487093;-151.8752393;-272.2295585;-170.3121797;6.31366925;4.43900301;3.441460595;65.39323152;78.39308278;122.8807486
1;0.229756125;-9.927097612;-11.00580009;3.055103277;-5.039426247;34.1502516;12.77022412;1.838123772;-0.592935388;118.5237481;241.6602104;235.7232046;-15.0663645;-20.42897018;-17.79608398;-126.6419114;-253.5468702;-148.8776001;5.92045537;5.814172455;3.389955192;63.18173228;89.75553889;126.9666321
1;0.48938405;-11.01182302;-11.30500102;-21.47043843;8.745207795;-24.89964822;15.67285217;-0.361664701;-1.493011959;122.730995;195.752328;218.5982431;-12.9570961;-19.74348085;-16.36509856;-103.6283781;-240.1016529;-161.1235059;5.222754928;4.549692503;2.948167573;62.17825451;71.17912618;120.4094589
1;-0.457058454;-11.77097109;-11.12263393;5.052479815;8.008462086;15.31872931;17.87493804;-1.16197035;-2.023179182;114.3901719;151.3208382;223.7972733;-15.16111742;-19.80186569;-18.48035119;-105.2639228;-184.0580467;-163.7429705;6.032796275;4.408958701;2.939600525;64.29634065;70.71731796;127.5103935
1;0.785728248;-9.982260361;-11.07199926;-6.03759607;-2.886157913;16.30059952;10.95993812;1.772725515;-1.522524856;121.5761989;199.7398929;235.0694605;-11.6562566;-20.24163919;-19.14067802;-104.5136202;-250.4874553;-146.6342623;5.898327379;5.558911441;3.763961701;57.93395708;87.4978474;121.3509223
1;-0.161466847;-10.814989;-11.09674735;-20.97219765;18.79437371;-28.8302357;11.97672706;1.783169311;-2.12100766;137.8795168;218.7888618;224.8773821;-12.29949421;-20.06552901;-16.8001207;-119.3105592;-226.0868847;-165.1860902;5.510348603;4.97543517;3.08607041;64.88390703;78.698181;122.3697276
1;-0.15873417;-11.72323859;-11.19855387;11.69060184;-1.497214454;38.18761066;16.62384244;0.414605203;0.492033095;133.6450002;213.7408578;231.9896826;-16.76641505;-19.81567205;-17.50688913;-113.8782856;-246.5199335;-153.6950704;6.592361768;4.95307298;3.405791399;63.90423311;76.27001338;135.0814273
1;0.076066643;-9.913566285;-10.72983398;-5.222479777;-4.379756507;1.11386942;12.60772276;0.439129756;-1.57028648;113.9517625;193.4971637;214.9575535;-13.79685918;-19.81644564;-20.23175264;-112.0897173;-262.1655863;-161.0319171;6.286399702;5.364909822;3.76542347;54.76209778;101.4722717;106.5692032
1;-1.054990405;-10.85847852;-10.74735893;-11.61976091;11.20210295;3.481711369;8.516560438;0.640540955;-2.430748552;94.8060262;136.5900407;196.5714689;-13.50358003;-19.98477943;-20.96212626;-187.562413;-181.0683142;-163.7332879;5.511513595;4.979248608;3.224978825;61.35409708;72.81261121;118.4431031
2;0.350565705;-10.13278128;-11.11411894;-10.32656465;7.555869144;-15.21189431;11.26136821;0.369566312;-1.105577274;111.1939368;151.3687859;149.7166204;-9.504865789;-20.46997273;-18.66301532;-110.6714341;-129.898719;-95.55779988;4.830925857;4.39118979;3.553838678;52.61668908;59.33960079;71.04373087
2;0.27525559;-10.18273626;-10.58705992;6.903941996;-4.840240493;18.0979119;10.2346676;-1.73705632;-2.009561615;131.5155919;244.4756344;134.6249372;-9.36462564;-19.87343774;-19.16285682;-132.0346623;-161.9215663;-93.62851966;4.812304289;4.449131459;4.23366516;61.93770247;69.81542957;78.23235388
2;-0.353759678;-10.24384027;-10.62580827;-9.44772301;12.71159092;-13.57307418;14.39578774;-0.476073365;1.247153493;114.0474237;262.4303519;168.15999;-14.26949488;-20.27729898;-22.20687805;-176.1956932;-180.9101348;-120.4573729;6.373178911;4.590156091;5.112337562;67.13642416;78.32132243;81.35448472
2;0.89664148;-10.08998344;-11.16008136;2.647176196;-2.528064704;14.46094443;15.13996406;2.017928852;-0.676823479;120.387427;287.2674658;166.6603759;-12.26282025;-20.99411221;-19.33139428;-161.3874319;-173.0398037;-137.3143536;5.79819949;5.90463923;4.08205796;62.17925638;94.62576121;95.09530902
2;-0.704456334;-10.27782944;-10.72376129;2.102597117;-1.636885429;5.836537368;10.83629503;-0.670798028;5.454517574;130.8779364;246.5524561;175.141918;-13.60353136;-20.35125083;-21.63848135;-248.4411814;-196.0876156;-120.1846357;6.211212473;5.430851375;5.598725444;80.05445992;93.6365834;100.7112936
2;-0.067445872;-10.15296418;-10.79097191;-3.848804607;5.475414731;-11.61074964;12.32189244;3.413179866;0.916087832;131.5112317;240.9385706;182.3576737;-14.347928;-21.1262227;-27.76921739;-189.1269044;-178.5617573;-134.4413093;6.538761424;5.433275955;5.524650759;79.94538651;90.62126332;99.77829131
2;1.057353851;-10.09145133;-11.21309976;-2.363974162;1.185299651;3.150812612;13.95530703;3.201071754;1.94795014;127.8116526;267.2658416;184.2895853;-15.92410182;-20.56399532;-23.82604108;-178.5551058;-200.1410249;-127.515921;6.503921744;5.951279786;5.412906291;74.85911718;100.830653;98.40505691
2;-0.198947877;-10.10036605;-10.30962851;1.815895867;3.980741871;10.90812725;12.27101386;2.730268264;1.14021168;133.3700205;261.8423763;180.5371912;-14.41268344;-20.37245892;-22.62587106;-167.7264749;-163.7585743;-125.6385615;6.653866756;5.474773689;5.140013091;78.66785124;81.79640258;107.718583
2;-0.919080849;-10.0747423;-10.98500533;-2.120165016;7.858948518;-4.925873459;8.693384791;3.124247254;0.851067206;117.9422101;290.0171569;203.3253886;-13.07259025;-21.00101948;-23.93572258;-174.1804774;-214.8888471;-142.8069145;6.374967392;5.799434065;4.994798099;81.30602555;94.33235975;105.0709639
2;1.124333414;-10.03354456;-11.50030746;-5.607306138;-0.736684874;-6.985896536;10.7093792;0.69266846;1.148596848;132.1346508;287.2776163;201.2505283;-16.06129411;-20.6361009;-21.25549944;-187.1572344;-211.9876531;-140.8808574;6.457276749;5.815752936;5.021699755;78.66164008;101.3068882;108.6396689
2;-0.663098692;-9.894346822;-10.35553832;-2.446873043;7.732216105;18.11347534;14.19299789;-0.166901803;2.485229478;145.6389715;263.5813163;218.289346;-18.47461313;-20.21274344;-19.45856492;-242.1083003;-183.8365647;-158.709469;7.386086916;5.938189148;5.052919033;86.29954729;95.16263357;115.4541653
2;-0.199759889;-11.0115438;-10.87943221;3.200592965;4.345356244;1.13003754;16.07933979;1.312344199;2.973676964;141.1767234;274.3148067;193.270658;-15.02404369;-20.5261025;-20.85292726;-182.1844248;-234.8922397;-156.68871;6.707001092;5.972158723;4.994767933;76.30056698;92.84357507;105.4484908
2;0.674968049;-10.11350295;-11.05531322;-13.79226608;2.77909527;-17.09485918;16.7655836;1.236425348;1.467945133;137.0816008;271.2101676;174.0159763;-15.21093872;-20.3955249;-19.14043618;-188.7615428;-169.6329195;-149.9885334;7.156668366;5.528948996;4.554299719;76.18448027;97.88513255;101.4237576
