acc_x;acc_y;acc_z;gyro_x;gyro_y;gyro_z;label
4.23;-5.06;-7.9;40.69;-123.32;26.66;0
3.89;-4.31;-9.12;47.71;-123.75;7.9;0
3.41;-3.92;-9.76;46.21;-120.83;-8.37;0
3.15;-3.8;-10.21;39.69;-131.22;-23.93;0
2.36;-4.15;-10.88;27.69;-143.12;-40.27;0
1.21;-4.9;-11.52;11.48;-145.12;-58.16;0
0.09;-6.14;-12.07;-12.97;-124.6;-72.24;0
-0.26;-8.03;-12.2;-40.55;-69.8;-78.73;0
-1.01;-9.53;-9.85;-68.26;8.56;-84.59;0
-4.18;-11.17;-6.67;-89.13;78.88;-97.12;0
-11.2;-13.9;-4.87;-94.62;129.46;-109.5;0
-20.31;-17.67;-4.39;-88.42;116.88;-107.17;0
-20.31;-18.77;-3;-76.38;63.19;-67.86;0
-18.46;-12.92;-2.95;-47.06;59.08;-29.62;0
-10.31;-6.4;-5.29;-1.02;57.77;15.44;0
-5.11;-2.51;-6.95;41.91;0.36;57.61;0
-0.52;-1.62;-8.16;63.43;-97.93;85.02;0
4.08;-6.32;-10.85;42.06;-185.76;97.64;0
7.92;-19.67;-15;-17.84;-204.14;62.05;0
10.22;-19.67;-16.18;-105.47;-176.06;-48.16;0
6.85;-19.67;-13.91;-151.89;-43.66;-81.73;0
2.17;-11.77;-7.54;-130.73;79.26;-28.07;0
5.41;-4.56;-6.38;-56.69;100.37;39.22;0
9.63;-3.16;-11.15;52.9;129.62;73.77;0
10.54;-5.77;-12.43;136.01;170.11;71.21;0
8.25;-8.05;-13.24;151.17;142.15;19.43;0
7.55;-6.65;-16.42;127.94;53.59;-59.51;0
6.05;-6.71;-19.83;76.42;-85.64;-137.08;0
1.07;-10.3;-22.71;-26.33;-156.48;-179.26;0
-7.16;-12.26;-21.83;-142.66;-134.09;-169.78;0
-11.89;-9.22;-17.95;-226.01;-11.99;-124.24;0
-10.07;-8.16;-12.79;-249.67;65.74;-65.32;0
-4.51;-10.95;-6.56;-249.67;82.66;-30.46;0
-2.26;-11.86;-2.89;-240.43;73.43;-16.46;0
1.25;-11.7;0.89;-150.21;44.46;-13.3;0
4.04;-11.9;-1.46;-10.02;39.1;-9.02;0
3.9;-10.88;-6.7;88.7;61.11;0.34;0
3.03;-10;-10.45;125.81;99.37;1.65;0
2.96;-9.9;-13.71;105.92;134.69;-19.26;0
2.43;-8.89;-15.37;64.69;144.49;-41.93;0
1.28;-9.23;-16.31;15.6;122.31;-63.52;0
-0.47;-9.72;-16.18;-31.35;90.72;-82.95;0
-2.55;-10.14;-14.88;-63.35;69.28;-89.81;0
-3.74;-10.5;-13.32;-80.67;51.75;-87.49;0
-4.63;-10.3;-11.36;-96.66;29.94;-80.64;0
-5.19;-10.2;-9.89;-111.99;18.98;-72.53;0
-5.7;-10.16;-7.96;-115.42;32.06;-59.85;0
-4.83;-10.12;-4.82;-89.16;37.15;-43.26;0
-2.68;-10.39;-4.6;-21.55;-1.14;-39.54;0
-1.07;-10.49;-8.65;36.64;8.81;-49.2;0
-0.84;-10.62;-9.68;44.08;34.79;-48.98;0
-0.06;-10.44;-10.4;24.13;59.46;-41.71;0
0.67;-10.34;-10.68;13.19;102.2;-44.49;0
0.19;-10.36;-10.12;11.03;131.2;-53.01;0
-2.44;-10.14;-9.53;13.72;125.03;-60.65;0
-5.61;-9.66;-8.99;17.55;106.98;-58.98;0
-8.31;-9.05;-8.41;23.58;95.31;-50.44;0
-9.42;-8.48;-8.54;36.2;82.72;-34.45;0
-7.7;-8.22;-9.09;51.05;73.51;-11.26;0
-3.81;-9.16;-10.39;58.11;79.29;1.3;0
-1.75;-10.08;-11.81;63.99;75.86;1.99;0
-1.83;-11.43;-12.47;66.44;47.82;-11.24;0
-5.19;-13.63;-12.68;65.18;-7.52;-26.84;0
-9.74;-15.64;-12.18;65.91;-95.19;-27.51;0
-13.61;-15.76;-11.43;64.26;-143.67;-9.97;0
-15.43;-13.91;-10.78;67.21;-167.88;12.08;0
-13.36;-11.51;-10.5;75.26;-157.8;44.55;0
-10.56;-10.13;-11.29;81.74;-141.57;102.95;0
-7.39;-10.41;-11.95;78.94;-130.31;174.3;0
-4.35;-12.08;-12.35;60.24;-95.47;225.88;0
-0.79;-14.9;-12.55;39.52;-44.94;245.47;0
2.83;-19.11;-11.89;16.71;17.72;233.67;0
7.17;-19.67;-10.33;0.14;89.62;194.94;0
11.06;-19.67;-6.14;20.62;148.04;162.9;0
8.2;-18.46;-6.81;67.26;164.23;153.47;0
5.35;-14.47;-11.05;74.65;179.64;150.98;0
3.51;-11.21;-12.02;66.99;154.84;140.55;0
1.16;-8.13;-12.04;58.52;55.94;119.67;0
0.4;-6.95;-12.41;44.13;-57.9;95.13;0
-0.81;-8.12;-13.24;21.08;-126.19;78.53;0
-3.09;-8.94;-13.24;-6.33;-150.25;73.82;0
-4;-9.17;-13.06;-33.21;-137.7;79.48;0
-4.39;-8.74;-11.72;-52.9;-111.03;95.07;0
-2.57;-8.77;-10.31;-61.46;-93.14;111.48;0
0.29;-8.4;-8.05;-45.41;-101.49;113.68;0
3.61;-7.44;-6.38;-1.11;-126.57;100.73;0
5.68;-6.34;-8.22;37.87;-140.54;84.23;0
6.67;-5.02;-9.68;53.81;-141.16;66.96;0
7.17;-3.84;-10.71;54.32;-130.8;45.05;0
6.7;-3.2;-11.57;40.98;-114.6;26.05;0
6.18;-2.9;-12.05;20.91;-85.59;9.78;0
5.7;-2.83;-12.03;0.8;-48.5;-3.21;0
5.02;-3.25;-11.61;-19.42;-27.22;-18.37;0
4.16;-4.52;-10.31;-38.96;-35.98;-34.42;0
3.14;-6.49;-9;-53.01;-70.43;-52.32;0
1.11;-9.46;-7.96;-60.76;-113.23;-63.96;0
-0.75;-11.36;-6.26;-59.61;-119.35;-93.57;0
-5.1;-13.32;-5.43;-41.6;-50.36;-127.23;0
-12.24;-14.6;-7.57;-21.89;47.29;-156.15;0
-20.31;-16.41;-7.75;-39.14;71.89;-146.94;0
-20.31;-17.97;-5.3;-72.42;56.82;-98.49;0
-20.31;-15.42;-1.7;-82;78.66;-28.38;0
-14.4;-9.69;-3.51;-46;98.91;1.42;0
-8.46;-5.27;-6.84;16.2;94.92;36.2;0
-2.49;-1.53;-7.22;57;-1.17;74.59;0
2.92;-2.3;-8.37;35.02;-186.4;113.36;0
8.23;-9.59;-13.89;30.26;-227.25;144.03;0
12.92;-19.67;-18.58;-16.13;-100.86;70.97;0
12.33;-19.67;-17.03;-87.05;-7.31;-35.36;0
7.29;-13.27;-13.38;-95.13;71.27;-43.1;0
4.68;-6.83;-9.26;-82.34;98.58;-12.07;0
6.67;-6.3;-9.45;-62.56;74.66;-1.31;0
7.19;-7.08;-10.92;-27.03;58.47;-2.12;0
4.77;-9.81;-11.69;16.34;42.35;-18.94;0
3.17;-10.49;-11.25;37.06;5.26;-67.53;0
2.82;-9.68;-12.3;28.63;-32.06;-109.1;0
0.51;-9.2;-13.49;-0.55;-61.3;-118.15;0
-2.17;-9.17;-14.72;-38.59;-49.74;-113.68;0
-4.26;-8.3;-14.74;-78.58;-6.55;-101.47;0
-4.21;-7.61;-13.5;-118.17;29.89;-86.27;0
-3.66;-7.66;-12.27;-145.66;38.67;-69.81;0
-2.79;-8.84;-10.55;-154.8;45.2;-56.26;0
-1.89;-9.47;-8.65;-141.16;55.91;-43.54;0
-0.68;-9.3;-7.49;-105.71;67.41;-32.88;0
1.1;-8.8;-8.24;-63.74;78.15;-32.23;0
2.32;-8.79;-9.67;-28.93;85.46;-42.51;0
1.7;-9.08;-11.21;-10.38;84.82;-53.54;0
0.39;-9.65;-12.41;-11.5;71.31;-65.79;0
-0.72;-9.21;-13.04;-22.15;59.42;-77.56;0
-2;-9.02;-13.07;-31.63;46.59;-85.51;0
-2.93;-8.86;-13.07;-42.42;30.11;-84.17;0
-3.62;-8.94;-12.82;-55.41;22.6;-76.77;0
-3.41;-9.63;-12.28;-67.29;22.56;-67.45;0
-2.62;-10.68;-11.7;-76.71;38.04;-58.86;0
-1.89;-11.7;-11.07;-75.25;54.29;-50.14;0
-0.52;-11.84;-9.93;-63.06;60.51;-44.64;0
0.67;-12.03;-8.47;-46.27;57.94;-47.26;0
0.39;-12.47;-7.31;-27.51;64.11;-55.38;0
-1.2;-12.5;-7.65;-8.55;80.71;-57.83;0
-2.51;-11.85;-8.77;8.58;107.16;-53.73;0
-3.68;-11.47;-10.01;24.11;128.38;-45.87;0
-4.86;-11.5;-10.92;37.68;122.8;-39.4;0
-6.28;-11.07;-11.37;42.1;103.27;-35.8;0
-7.43;-10.04;-11.48;42.16;87.22;-28.42;0
-6.95;-9.16;-11.55;40.71;89.09;-10.46;0
-4.97;-9.18;-11.51;38.8;92.76;10.28;0
-1.85;-9.89;-11.31;34.49;106.81;18.32;0
0.31;-10.14;-10.58;31.29;124;12.15;0
0.03;-10.17;-10.05;36.81;122.65;0.8;0
-3.1;-11.37;-10.87;54.42;88.33;-8.23;0
-7.13;-13.8;-11.21;73.16;6.41;-15.62;0
-10.74;-15.84;-10.92;89.42;-82.35;-15.39;0
-13.38;-16.16;-10.54;96.53;-99.16;4.2;0
-13.89;-13.83;-10.3;101.01;-110.23;36.47;0
-11.47;-10.74;-11.13;97.24;-121.77;88.03;0
-8.05;-10.31;-12;86.52;-125.2;147.67;0
-4.69;-12.2;-12.34;64.18;-99.28;193.19;0
-1.87;-14.53;-12.86;39.72;-48.18;207.84;0
0.41;-16.58;-12.51;21.84;-9.96;194.66;0
2.95;-18.71;-11.31;5.48;16.65;169.92;0
5.68;-19.46;-9.26;-4.23;37.69;147.03;0
7.67;-17.5;-6.6;3.47;52.5;135.8;0
6.6;-14.56;-6.34;34.03;72.85;126.59;0
5.23;-12.48;-9.42;59.63;88.04;121.84;0
4.54;-9.3;-10.79;65.21;100.94;117.32;0
3.07;-6.75;-10.98;60.87;64.79;109.4;0
2.51;-5.83;-11.47;56.94;-1.09;94.08;0
2.36;-6.74;-12.36;48.43;-40.96;74.72;0
1.15;-7.35;-13.17;34.62;-76.79;60.46;0
-0.11;-7.24;-13.5;14.67;-105.91;53.95;0
-1.52;-7.35;-13.74;-8.32;-109.38;57.84;0
-2.8;-7.43;-13.27;-29.4;-90.55;70.42;0
-2.63;-7.6;-12.19;-46.58;-57.48;84.4;0
-1.22;-7.14;-10.35;-56.58;-39.57;90.49;0
0.62;-6.59;-7.75;-53.68;-64.7;84.97;0
2.63;-6.72;-5.88;-21.7;-100.57;67.9;0
2.94;-7.18;-6.31;16.8;-130.48;50.85;0
3.05;-6.61;-6.46;42.12;-149.9;37.61;0
3.19;-6.32;-7.42;59.93;-159.36;26.19;0
2.5;-6.22;-9.42;70.32;-152.73;13.06;0
1.42;-6.38;-11.18;73.69;-126.62;3.12;0
0.5;-6.52;-12.58;65.8;-89.5;-0.76;0
-0.44;-6.76;-13.23;41.43;-50.76;-1.92;0
-0.46;-7.21;-13.37;7.37;-24.52;-3.07;0
0.41;-8.08;-13.32;-29.62;4.35;-5.47;0
0.86;-8.69;-12.44;-63.83;11.65;-13.07;0
-1.08;-9.42;-9.33;-98.29;29.43;-36.29;0
-6.56;-11.08;-5.12;-118.82;99.99;-68.78;0
-13.28;-15.57;-2.73;-113.21;173.28;-71.13;0
-13.88;-16.29;1.17;-89.03;146.6;-34.61;0
-11.38;-13.37;0.3;-38.1;44.92;-10.61;0
-11.09;-10.23;-4.61;39.1;17.51;-2.91;0
-8.44;-8;-6.71;92.94;25.24;-3.52;0
-6.05;-5.32;-7.4;104.19;-5.5;-10.62;0
-3.47;-3.34;-9.92;77.17;-101.25;-20.6;0
-1.91;-3.46;-13.18;31.97;-175.12;-33.18;0
-0.61;-4.98;-15.48;-12.99;-198.36;-46.36;0
1.7;-12.09;-18.01;-55.8;-169.83;-59.16;0
5.59;-19.67;-19.56;-111.29;-116.38;-63.4;0
10;-19.67;-17.99;-186.59;-69.82;-64.13;0
12.27;-19.67;-11.5;-249.67;29.96;-19.22;0
5.2;-16;-2.99;-241.18;96.65;14.74;0
6.45;-8.9;-2.3;-121.57;70.3;12.24;0
9.77;-6.31;-4.45;28.46;58.02;23.38;0
11.92;-7.7;-9.06;149.67;32.69;17.33;0
10.63;-6.43;-14.25;175.31;31.11;-32.25;0
9.88;-0.72;-19.35;116.03;50.05;-93.12;0
7.55;-2.37;-24.24;27.13;32.92;-155.56;0
1.96;-6.71;-24.3;-81.91;-17.96;-190.89;0
-4.36;-8.94;-20.41;-178.02;-39.96;-183.18;0
-9.64;-10.42;-15.16;-240.27;26.2;-152.55;0
-11.74;-13.08;-9.15;-249.67;117.97;-114.72;0
-11.9;-14.19;-2.26;-222.49;138.44;-77.73;0
-10.41;-12.94;-0.9;-95.34;94.65;-52.57;0
-8.9;-11.45;-3.46;28.51;37.15;-22.76;0
-7.3;-9.11;-7.95;73.74;0.17;1.22;0
-2.57;-7.31;-12.51;43.81;26.82;11.44;0
0.87;-7.87;-16.38;-15.59;58.07;14.97;0
3.83;-8.64;-16.69;-70.77;58.61;2.37;0
6.29;-9.6;-14.5;-107.7;48.59;-24.97;0
6.36;-10.13;-9.43;-111.14;34.01;-55.69;0
4.28;-10.92;-6.23;-68.35;29.07;-78.44;0
1.22;-10.79;-8.64;-16.51;50.57;-86.34;0
-0.88;-9.31;-12.51;-5.71;70.42;-75.5;0
-1.38;-9.13;-14.74;-23.39;86.46;-61.05;0
-1.31;-10.19;-15.39;-43.98;103.59;-51.74;0
-0.13;-11.33;-13.64;-64.75;115.89;-45.66;0
-0.23;-12.25;-9.9;-66.84;106.21;-50.52;0
-2.15;-13.15;-7.56;-41.35;98.6;-57.51;0
-4.68;-12.9;-8.59;-5.02;103.72;-60.99;0
-6.71;-11.83;-10.91;9.85;94.92;-58.97;0
-7.51;-11.27;-11.65;1.56;78.99;-49.42;0
-7.47;-11.42;-11.24;-9.71;71.83;-34.76;0
-5.86;-11.43;-10.04;-2.12;66.94;-18.88;0
-4.02;-11.38;-10.21;17;57.62;-7.25;0
-2.32;-10.99;-10.81;35.14;47.69;-5.2;0
-1.71;-10.62;-10.47;40.26;55.14;-4.99;0
-2.19;-11.14;-9.85;41.61;79.14;-0.41;0
-3.65;-10.86;-9.89;60.24;80.98;9.76;0
-4.74;-10.52;-10.19;84.47;51.57;18.8;0
-6.1;-10.76;-9.99;95.36;40.66;23.6;0
-7.54;-11.35;-9.79;97.93;24.65;34.3;0
-7.2;-11.99;-9.64;97.55;-0.86;62.96;0
-5.26;-12.67;-10.02;99.21;-21.2;97.35;0
-3.79;-13.55;-10.65;101.39;-54.27;115.35;0
-3.54;-14.77;-12.03;108.81;-91.31;121.4;0
-3.18;-15.8;-13.36;116.03;-105.29;123.94;0
-3.36;-15.83;-13.58;113.02;-86.28;134.43;0
-3.76;-15.22;-13.08;91.81;-57.19;144.67;0
-2.58;-15.21;-12.39;63.63;-68.54;153.44;0
-0.37;-15.34;-12.14;32.81;-71.6;159.42;0
1.83;-15.36;-12.41;13.74;-39.57;157.76;0
3.61;-15.33;-11.96;7.47;12.12;149.03;0
4.75;-13.53;-11.78;7.86;74.34;139.8;0
5.12;-9.95;-10.54;3.49;112.15;139.46;0
4.69;-5.89;-9.72;3.34;67.4;138.74;0
5.75;-5.3;-9.64;16.69;-9.54;122.24;0
5.3;-6.71;-10.15;22.49;-35.12;100.64;0
4.41;-6.54;-10.53;21.95;-53.48;81.3;0
3.4;-6.44;-11.31;15.73;-55.86;71.06;0
1.62;-6.96;-11.97;6.2;-49.18;75.01;0
-0.51;-8.13;-12.15;-3.77;-45.12;88.44;0
-0.75;-8.64;-11.52;-11.9;-36.62;102.45;0
-0.22;-8.46;-10.59;-13.58;-33.75;107.96;0
1;-7.44;-9.56;-7.83;-43.38;100.97;0
2.59;-6.17;-9.37;2.08;-64.56;84.06;0
3.66;-5.4;-9.68;9.06;-77.56;61.9;0
3.87;-5.07;-10.07;12.38;-84.9;38.31;0
3.6;-5.14;-10.97;9.32;-86.13;13.64;0
3.42;-5.36;-12.05;1.54;-77.78;-6.95;0
2.83;-5.95;-12.44;-10.62;-67.73;-17.78;0
3.13;-6.57;-11.77;-29.19;-63.9;-32.03;0
3.2;-8.07;-10.41;-50.8;-68.53;-53.39;0
2.83;-10.79;-9.08;-73.1;-82.43;-77.09;0
1.83;-13.3;-7.48;-84.8;-91.4;-101.94;0
-1.21;-14.14;-3.97;-68.39;-54.06;-126.59;0
-8.52;-15.69;-4.89;-13.71;50.97;-138.99;0
-14.54;-16.52;-8.71;2.07;118.27;-100.91;0
-19.88;-14.4;-10.23;-29.36;143.68;-27.44;0
-19.58;-9.55;-6.82;-68.19;159.95;30.38;0
-14.92;-7.65;-3.45;-80.61;111.45;30.73;0
-9.39;-6.81;-1.8;-48.49;20.79;31.03;0
-4.63;-7.17;-4.08;19.87;-84.18;33.94;0
-0.56;-9.97;-9.32;84.88;-165.71;34.03;0
3.23;-13.27;-14.64;95.95;-194.54;34.2;0
7.74;-19.67;-16.98;31.8;-156.91;42.73;0
13.02;-19.67;-18.01;-58.59;-76.8;32.42;0
13.54;-15.75;-13.03;-101.77;-11.84;-2.55;0
9.98;-10.13;-8.99;-79.94;50.72;-27.06;0
8.11;-8.4;-8.68;-18.09;99.85;-23.62;0
8.47;-5.4;-10.45;21.44;114.92;-12.41;0
8.26;-5.37;-13.96;39.16;139.99;-8.97;0
6.07;-6.45;-16.99;43.34;171.33;-50.94;0
2.82;-6.77;-18.76;28.38;143.44;-114.27;0
-0.96;-7.92;-18.17;-17.84;51.54;-147.78;0
-5.06;-9.5;-16.77;-77.88;-13.22;-144.64;0
-7.72;-10.83;-15.15;-124.9;-10.85;-128.72;0
-7.96;-11.44;-12.81;-140.04;28.96;-100.72;0
-6.38;-11.22;-9.97;-129.05;46.04;-70;0
-3.12;-10.52;-8.49;-104.12;25.89;-52.71;0
0.59;-9.6;-8.32;-71.8;5.09;-50.94;0
2.17;-8.75;-8.33;-38.2;-11.84;-41.2;0
3.88;-8.95;-10.17;-22.15;-13.26;-37.61;0
5.56;-9.89;-12.11;-23.99;16.88;-55.93;0
5.23;-10.96;-13.26;-38.38;43.21;-83.9;0
4.16;-11.43;-12.7;-58.67;50.63;-104.13;0
2.11;-11.25;-10.6;-81.35;47.19;-114.07;0
-0.68;-11.71;-7.03;-80.8;56.54;-114.45;0
-3.51;-12;-5.74;-41.63;63.98;-105.54;0
-4.54;-10.84;-7.9;4.86;73.74;-90.23;0
-3.75;-9.15;-11.45;22.61;72.16;-75.1;0
-2.03;-8.26;-13.42;12.65;59.04;-66.49;0
-0.55;-8.56;-14.29;-7.16;57.38;-68.13;0
0.29;-9.47;-13.39;-31.74;73.88;-71.78;0
0.89;-10.21;-11.28;-44.54;81.92;-73.91;0
0.58;-10.83;-9.34;-27.78;101.9;-77.74;0
-1.63;-11.49;-10.12;11.27;120.61;-82.58;0
-4.7;-11.09;-11.73;34.05;107.58;-85.8;0
-7.07;-9.86;-11.55;22.27;87.39;-81.56;0
-8.2;-9.1;-10.51;7.29;89.8;-62.37;0
-6.53;-8.81;-8.92;13.42;95.68;-26.45;0
-3.52;-9.68;-9.23;37.62;89.41;-1.97;0
-2.16;-10.48;-11.24;59.59;81.01;-3.42;0
-3.1;-11.12;-13.22;73.62;61.04;-15.43;0
-5.64;-12.23;-13.63;76.18;6.2;-25.01;0
-9.84;-14.73;-13.58;71.22;-48.32;-17.84;0
-12.85;-15.57;-12.99;60.95;-72.85;5.29;0
-13.59;-12.63;-11.66;58.86;-91.16;48.24;0
-9.61;-10.51;-10.31;56.78;-114.28;102.16;0
-4.7;-12;-10.46;48.13;-128.33;156.65;0
0.41;-14.48;-12.11;41.09;-125.74;184.84;0
4.16;-16.89;-13.55;40.11;-85.96;180.09;0
5.32;-17.79;-12.72;38.62;-64.77;160.27;0
4.02;-15.41;-11.83;32.82;-83.47;149.98;0
1.35;-12.28;-10.5;29.56;-88.91;144.88;0
0.85;-12.81;-9.91;28.58;-80.79;138.77;0
2.41;-13.74;-10.19;27.23;-54.03;134.24;0
3.68;-13.48;-10.46;29.92;-5.01;122.79;0
4.36;-12.62;-10.39;35.72;48.81;118.64;0
4.1;-11.66;-10.02;37.58;85.27;124.2;0
3.53;-10.85;-10.47;36.49;79.94;124.15;0
3.34;-9.65;-11.01;38.57;35.03;112.74;0
3.29;-9.19;-11.81;43.52;-25.7;93.23;0
2.54;-9.73;-12.69;37.44;-62.99;79.84;0
1.09;-9.46;-13;22.93;-78.15;78.16;0
-0.42;-8.91;-12.82;8.31;-56.57;86.37;0
-1.03;-8.59;-12.09;-4.78;-30.19;96.81;0
-0.9;-8.5;-10.99;-13.68;-17.14;107.09;0
0.24;-8.09;-10.1;-11.48;-25.35;108.26;0
1.4;-7.48;-9.58;-1.35;-50.35;100.63;0
2.34;-7.1;-9.58;7.87;-74.12;89.52;0
2.53;-6.63;-9.64;14.07;-91.5;78.96;0
2.5;-6.44;-9.74;17.71;-102.17;69.68;0
2.65;-6.48;-10.21;18.07;-104.27;61.58;0
2.96;-6.38;-10.58;15.78;-98.24;52.19;0
3.37;-6.13;-10.74;13.48;-91.89;38.48;0
3.34;-6.06;-11.22;11.66;-85.83;20.22;0
2.82;-6.06;-11.91;9;-78.23;1.02;0
1.96;-6.04;-12.04;-0.26;-70.5;-16.58;0
1.31;-6.45;-11.37;-14.87;-68.83;-31.83;0
0.52;-7.66;-9.99;-31.66;-80.64;-48.16;0
-0.33;-9.61;-8.5;-44.11;-86.28;-62.7;0
-2.85;-11.64;-6.79;-43.86;-71.67;-72.83;0
-6.63;-13.5;-5.73;-27.75;-13.24;-74.78;0
-12.25;-15.19;-5.34;-13.84;55.62;-62.96;0
-16.2;-15.11;-5.64;-10.74;106.88;-40.87;0
-16.41;-11.53;-5.2;-17.15;115.47;-5.97;0
-13.29;-7.58;-4.06;-22.79;78.33;18.06;0
-9.62;-5.54;-4.04;-6.33;24.52;34.3;0
-5.75;-5.34;-5.33;28.39;-26.26;44.46;0
-1.74;-5.26;-8.6;55.08;-57.01;41.35;0
-0.02;-5.21;-10.8;55.51;-96.97;36.44;0
2.32;-5.94;-14.2;30.78;-130.31;23.86;0
4.01;-11.12;-17.29;-7.64;-131;-8.39;0
7.22;-19.67;-19.02;-78.25;-112.02;-59;0
10.36;-19.67;-18.36;-166.91;-89.9;-101.69;0
5.87;-19.67;-11.71;-194.94;-20.26;-71.08;0
0.14;-10.9;-3.51;-133.16;74.17;2.27;0
2.41;-3.39;-3.02;-17.04;109.33;61.04;0
7.37;-3.91;-5.38;81.29;97.66;83.61;0
11.13;-5.7;-10.15;122.06;83.93;65.18;0
11.65;-6.46;-15.39;109.71;69.41;4.4;0
10.44;-5.59;-19.47;65.2;61.36;-82.32;0
7.7;-7.05;-21.65;1.84;30.08;-148.64;0
1.06;-10.6;-21.26;-72.42;-20.08;-163.35;0
-5.25;-10.94;-18.76;-140.77;-23.45;-148.2;0
-9.59;-11.14;-13.73;-180.15;50.41;-129.08;0
-10.34;-12.16;-9.71;-194.11;89.01;-91.04;0
-8.85;-11.83;-6.33;-167.14;89.98;-49.49;0
-5.1;-11.58;-5.36;-104.28;70.14;-25.16;0
-2.42;-10.26;-5.84;-36.62;50.83;-9.62;0
0.48;-9.09;-7.93;8.15;45.18;-4.07;0
2.17;-8.5;-10.02;25.52;55.96;-10.1;0
3.23;-8.23;-12.56;17.26;77.8;-25.89;0
3.65;-7.91;-13.43;-8.87;84.31;-46.25;0
3.31;-8.22;-13.67;-38.28;76.49;-67.26;0
2.37;-9.24;-13.03;-58.77;56.93;-86.67;0
1.15;-10.84;-12.28;-65.82;36.09;-103.82;0
-0.86;-12.2;-11.22;-62.16;15.78;-112.01;0
-2.46;-12.17;-10.71;-56.99;9.33;-104.29;0
-3.6;-11.79;-10.12;-52.64;1.5;-89.82;0
-3.36;-10.83;-9.48;-50.88;5.03;-76.29;0
-2.2;-10.03;-8.97;-45.13;30;-70.04;0
-0.41;-9.67;-8.55;-30.89;61.27;-67.45;0
0.92;-9.73;-9.19;-15.58;76.49;-69.84;0
1.09;-10.86;-10.6;-8.24;72.23;-77.76;0
-0.28;-11.78;-11.25;-11.29;77.86;-89.01;0
-3.76;-11.37;-11.12;-12.05;80.27;-91.81;0
-7.08;-10.91;-11.72;-1.05;75.53;-86.4;0
-8.89;-10.56;-11.88;6.87;74.15;-68.96;0
-9.22;-10.5;-11.32;8.09;82.64;-42.84;0
-8.07;-10.14;-10.23;5.88;90.24;-16.86;0
-5.31;-9.89;-9.66;14.51;88.69;1.06;0
-3.09;-10.02;-9.27;31.46;94.07;12.26;0
-2.12;-10.24;-9.63;52.03;99.39;12.26;0
-3.13;-10.12;-10.14;70.91;85.52;8.82;0
-5.13;-10.33;-10.49;84.13;58.46;9.7;0
-7.9;-11.86;-10.23;84.73;54.99;15.03;0
-10.68;-13.57;-9.89;83.75;38.89;33.71;0
-11.09;-13.97;-9.22;89.65;3.32;64.06;0
-8.78;-14.26;-9.51;97.87;-47.94;94.89;0
-6.36;-14.63;-10.91;102.94;-111.35;120.41;0
-3.66;-14.92;-12.69;107.35;-135.86;134.16;0
-2.66;-14.43;-13.51;102.43;-120.15;144.22;0
-2.52;-13.75;-13.53;83.99;-85.1;158.74;0
-2.04;-13.2;-12.95;57.72;-48.05;172.06;0
-1.09;-13.09;-11.95;33.32;-34.81;181.32;0
0.57;-15.65;-11.21;13.86;-38.64;179.17;0
2.84;-17.69;-10.97;5.58;-29.47;163.99;0
4.62;-17.26;-10.17;12.84;-4.2;146.01;0
4.97;-15.22;-9.68;28.94;31.71;132.33;0
4.4;-12.44;-9.1;41.84;54.49;127.81;0
3.92;-10.4;-9.22;47.45;51.01;125.4;0
3.76;-9.14;-9.99;51.3;26.15;116.35;0
3.63;-8.11;-10.57;54.12;-12.95;97.58;0
3.26;-7.56;-11.32;51.29;-54.94;83.04;0
2.24;-7.5;-12.18;41.17;-85.03;74.9;0
1.42;-7.67;-12.75;26.13;-92.54;73.64;0
0.79;-7.68;-12.98;7.49;-73.36;79.51;0
-0.14;-7.96;-12.96;-12.87;-60.86;92.88;0
-0.32;-7.47;-11.73;-31.9;-58.32;108.63;0
0.49;-6.53;-10.44;-41.13;-40.1;114.58;0
1.68;-5.65;-9.62;-36.62;-43.68;110.8;0
3.27;-5.04;-9.01;-22.16;-66.8;93.25;0
4.3;-5.3;-8.7;-4.19;-82.11;65.68;0
3.6;-5.32;-8.78;8.42;-94.96;42.87;0
2.58;-5.02;-9.58;12.23;-106.25;22.59;0
1.76;-5.02;-10.03;9.91;-113.38;4.32;0
1.31;-5.18;-10.28;4.78;-116.45;-12.28;0
1.3;-5.68;-10.11;-6.55;-116.59;-32.89;0
1.59;-6.4;-9.39;-24.69;-127.39;-56.2;0
2.29;-8.27;-8.39;-49.74;-140.69;-76.97;0
2.55;-10.76;-7.01;-74.77;-125.4;-95.23;0
0.91;-12.95;-3.21;-81.77;-60.28;-109.03;0
-7.3;-15.97;-2.86;-59.49;35.56;-113.94;0
-17.56;-18.42;-7.58;-30.6;131.59;-100.3;0
-19.95;-17.71;-6.92;-29.31;194.88;-55.67;0
-19.27;-11.35;-3.38;-40.97;216.13;15.68;0
-13.02;-6.75;-2.45;-42.09;155.65;42.78;0
-8.03;-5.07;-4.28;-18.18;75.52;55.71;0
-3.86;-4.09;-6.24;21.8;-20.93;40.88;0
-0.91;-4.97;-8.47;52.81;-99.51;13.4;0
1.35;-7.88;-12.34;63.23;-145.32;-24.25;0
2.92;-18.11;-15.41;36.43;-184.33;-64.85;0
5.75;-19.67;-18.62;-30.19;-230.96;-85.96;0
8.38;-19.67;-17.33;-116.36;-210.2;-55.59;0
2.87;-16.92;-12.9;-154.13;-38.24;-10.88;0
2.29;-7.6;-8.88;-116.78;66.49;25.05;0
5.27;-3.06;-7.5;-42.71;92.07;66.79;0
10.45;-3.53;-7.59;41.25;89.91;89.96;0
11.91;-6.33;-10.09;95.76;106.01;63.9;0
10.37;-6.83;-14.63;94.46;115.91;-5.68;0
9.06;-4.97;-18.26;52.06;99.16;-76.08;0
6.95;-6.56;-19.71;-15.25;54.7;-131.92;0
1.76;-10.09;-18.25;-92.32;-3.48;-155.29;0
-3.7;-11.59;-15.16;-153.49;-33.57;-146.79;0
-7;-11.83;-12.48;-198.97;14.45;-129.87;0
-8.74;-12.93;-9.64;-208.38;102.26;-99.84;0
-8.59;-11.91;-5.98;-154.57;131.17;-59.49;0
-6.5;-10.36;-6.12;-86.19;112.17;-28.57;0
-2.96;-9.27;-6.95;-17.82;78.89;-11.75;0
-0.86;-8.92;-9.47;23.57;57.26;-2.48;0
1.36;-8.59;-12.29;32.62;54.12;-11.2;0
2.71;-8.82;-13.18;19.42;51.68;-23.96;0
3.5;-8.5;-13.66;-10.79;40.11;-42;0
3.64;-9.49;-13.48;-51.86;28.36;-64.71;0
2.35;-11.05;-12.79;-87.82;13.35;-89.86;0
0.26;-11.61;-11.25;-103.96;10.81;-104.39;0
-1.39;-11.62;-8.01;-98.5;29.64;-100.42;0
-3.64;-11.75;-4.06;-55.97;52.24;-80.66;0
-3.64;-10.82;-6.55;5.59;64.07;-66.2;0
-2.69;-9.69;-9.82;21.18;76.43;-62.9;0
-2.02;-9.58;-11.67;12.39;66.23;-61.74;0
-1.62;-9.93;-12.16;-2.55;62.86;-65.68;0
-1.99;-10.25;-11.73;-24.72;77.31;-66.89;0
-3.16;-10.66;-10.62;-33.05;113.61;-62.61;0
-5.37;-11.33;-8.72;-3.48;133.46;-53.87;0
-8.11;-11.98;-8.94;40.55;118.14;-48.38;0
-10.17;-11.47;-8.91;57.52;88.39;-49.13;0
-11.5;-9.47;-8.51;46.29;81.36;-34.83;0
-10.03;-7.19;-8.14;38.75;78.94;0.45;0
-6.87;-7.24;-8.66;53.38;73.36;35.16;0
-2.98;-9.13;-10.28;70;75.43;51.22;0
-0.91;-11.42;-11.88;80.72;60.85;41.88;0
-0.8;-13.61;-12.69;86.59;28.68;13.8;0
-3.69;-15.25;-12.49;86.62;-21.86;-11.32;0
-7.54;-15.76;-11.35;81.83;-82.16;-5.33;0
-10.54;-15.28;-10.51;76.84;-129.53;16.52;0
-10.81;-13.59;-10.72;82.62;-155.8;45.75;0
-8.74;-12.12;-11.87;94.72;-157.72;84.31;0
-5.98;-11.6;-12.57;98.07;-126.25;126.93;0
-3.53;-11.89;-13.15;84.51;-80.39;165.66;0
-2.15;-12.54;-13.07;57.75;-47.84;193.29;0
-0.04;-14.14;-12.33;26.35;-37.77;203.39;0
2.32;-17.8;-12.08;-0.7;-18.51;185.55;0
5.17;-19.67;-11.69;-11.47;27.09;154.12;0
7.14;-18.27;-10.65;-0.82;80.4;131.99;0
6.81;-14.42;-9.03;14.22;120.85;121.97;0
4.49;-10.59;-7.87;16.91;108.19;121.21;0
3.24;-8.94;-8.81;11.99;70.6;116.73;0
2.74;-7.78;-10.27;12.57;13.83;98.14;0
2.11;-7.82;-11.02;12.07;-34.58;74.67;0
1.18;-8.35;-11.66;7.96;-69.08;59.08;0
-0.16;-8.52;-11.96;1.42;-92.97;52.91;0
-1.08;-8.44;-11.72;-7.9;-106.79;55.8;0
-1.79;-8.25;-11.59;-16.7;-107.44;66.02;0
-1.77;-8.11;-11.07;-18.73;-90.66;82.27;0
-0.69;-7.85;-10.3;-14.19;-77.74;95.07;0
1.38;-7.28;-8.83;-5.21;-93.93;90.45;0
3.38;-6.63;-7.72;8.9;-128.7;73.59;0
4.22;-6.47;-8.46;22.72;-143.8;58.8;0
4.27;-6.2;-9.36;30.8;-138.57;45.03;0
4.32;-5.88;-10.15;30.87;-126.32;34.07;0
4.44;-5.11;-10.51;26.11;-106.09;22.81;0
4.39;-4.81;-10.38;19.8;-84.46;11.6;0
4.06;-5.05;-10.09;9.4;-73.73;-2.82;0
3.21;-5.82;-9.64;-10.38;-77.21;-21.81;0
2.86;-6.85;-9.64;-29.22;-77.01;-40.78;0
1.78;-7.78;-9.06;-45.46;-65.23;-59.59;0
0.51;-8.46;-8.21;-54.55;-22.7;-75.88;0
-2;-9.52;-6.57;-50.64;45.38;-89.71;0
-6.05;-10.99;-6.22;-43.71;114.19;-99.33;0
-11.55;-12.37;-8.17;-47.52;167.49;-108.35;0
-18.12;-13.96;-10.47;-64.9;178.65;-95.15;0
-20.31;-14.15;-10.71;-83.19;151.77;-52.51;0
-20.31;-9.89;-8.01;-71.36;103.62;-20.16;0
-16.35;-5.74;-6.49;-28.41;0.2;24.58;0
-8.71;-4.94;-6.64;1.54;-103.47;47.15;0
-2.08;-6.51;-7.56;-2.59;-189.35;56.56;0
1.49;-11.7;-9.05;-18.35;-236.09;45.65;0
6.66;-19.67;-10.67;-65.22;-231.96;-1.04;0
11.46;-19.67;-16.23;-94.12;-148.53;-73.26;0
9.01;-19.67;-12.56;-52.71;-27.61;-39.55;0
7.47;-5.27;-9.24;27.65;-1.06;44.7;0
10.65;-2.6;-12.45;108.78;50.03;90.58;0
11.56;-3.41;-15.21;139.62;81.49;94.87;0
10.41;-1.6;-17.6;117.7;110.79;48.37;0
10.05;-1.6;-21.64;69.61;101.54;-36.62;0
9.03;-5.25;-24.27;-10.83;25.22;-132.85;0
3.25;-10.31;-22.29;-121.71;-80.6;-177.48;0
-2.57;-13.3;-17.33;-216.9;-134.09;-156.84;0
-4.92;-13.69;-12.04;-249.67;-66.8;-129.58;0
-5.14;-14.32;-6.25;-249.67;59.34;-91.52;0
-2.57;-12.22;-0.68;-240.8;91.48;-50.21;0
1.42;-10.53;0.79;-120.82;86.1;-24.58;0
4.3;-10.76;-3.23;9.16;96.07;-14.5;0
3.94;-10.24;-7.1;90.74;120.27;-13.28;0
3.84;-8.91;-11.76;114.54;144.32;-29.75;0
3.16;-8.42;-17.02;95.31;156.94;-53.31;0
1.78;-7.52;-18.75;52.91;139.17;-78.74;0
-0.67;-8.36;-18.68;-2.55;86.04;-107.87;0
-3.76;-8.91;-17.02;-66.38;28.28;-122.86;0
-5.77;-9.49;-15.17;-117.44;6.97;-116.16;0
-6.64;-10.61;-13.27;-146.37;21.38;-97.08;0
-6.39;-12.02;-11.42;-157.7;57.65;-68.21;0
-4.82;-12.85;-9.1;-146.31;75.86;-39.87;0
-2.16;-13.32;-4.02;-92.87;53.15;-26.52;0
0.71;-13.73;-3.82;-9.87;26.48;-30.12;0
1.75;-13.46;-7.41;31.46;59.68;-48.69;0
0.72;-12.28;-10.71;23.94;69.69;-60.83;0
-0.67;-11.63;-12.26;0.39;71.4;-72.22;0
-3.13;-12.03;-11.08;-22.09;82.68;-75.87;0
-5.27;-11.81;-8.43;-25.96;126.28;-64.86;0
-7.9;-11.72;-7.37;9.63;134.05;-46.65;0
-8.91;-11.17;-8.91;52.02;106.92;-33.68;0
-9.16;-9.89;-9.48;63.6;94.43;-27.74;0
-8.87;-8.64;-9.24;52;86.38;-11.11;0
-7.48;-7.97;-9.72;50.03;85.72;17.04;0
-4.67;-8.51;-9.64;56.04;93.93;30.09;0
-3.1;-8.77;-8.79;62;92.72;38.26;0
-3.25;-9.52;-7.79;71.91;94.72;38.26;0
-4.28;-11.52;-8.51;87.65;71.12;40.02;0
-5.64;-13.66;-9.96;100.15;22.07;42.9;0
-7.26;-15.17;-10.34;108.29;-61.01;45.85;0
-8.19;-16.04;-11.18;116.41;-129;58.13;0
-8.52;-15.32;-12.32;132.53;-173.53;78.48;0
-8.26;-13.5;-13.18;138.9;-166.6;99.16;0
-7.71;-12.55;-13.77;125.04;-126.6;123.5;0
-5.93;-12.32;-14.03;94;-98.51;166.41;0
-3.65;-13.05;-13.87;49.74;-84.3;208.81;0
-0.53;-16.5;-14;3.19;-55.4;231.29;0
3.56;-19.67;-14.38;-22.13;8.99;207.42;0
6.48;-19.67;-13.27;-24;82.81;168.76;0
8.91;-18.38;-10.64;-13.07;162.78;149.66;0
8.56;-12.53;-5.07;-16.43;177.72;145.84;0
6.19;-9.39;-3.15;-2.8;73.65;147.65;0
5.12;-8.6;-7.48;34.5;16.27;129.5;0
4.86;-7.01;-9.5;48.07;-3.99;92.42;0
4.04;-5.89;-10.35;41.43;-37.58;62.64;0
2.26;-5.74;-11.43;28.57;-67.13;47.06;0
-0.09;-6.22;-12.26;12.93;-87.52;49.23;0
-1.85;-7.25;-12.47;-0.9;-88.35;61.86;0
-2.27;-7.92;-12.25;-11.21;-74.5;76.61;0
-1.75;-8.52;-11.41;-19.06;-59.72;84.34;0
-0.55;-8.34;-10.22;-22.46;-58.4;89.05;0
1.37;-7.49;-8.75;-16.86;-78.78;85.13;0
3.05;-6.79;-7.61;4.84;-106.77;67.78;0
3.77;-6.03;-8.05;31.2;-119.57;46.85;0
3.73;-5.43;-9.06;46.14;-117.09;31.83;0
3.41;-4.81;-10.09;51.55;-107.18;20.51;0
2.89;-4.66;-10.98;51.92;-103.84;9.05;0
2.29;-4.9;-12.16;46.62;-100.17;-0.03;0
1.39;-5.38;-13.32;28.26;-101.31;-7.58;0
1.07;-5.97;-13.46;-7.96;-99.99;-13.86;0
0.69;-6.9;-12.77;-57.43;-81.96;-19.21;0
0.66;-7.6;-10.92;-98.32;-30;-32.78;0
-0.54;-8.39;-7.93;-121.19;38.77;-55.42;0
-3.88;-9.78;-3.34;-114.59;102.97;-79.53;0
-10.13;-11.7;-0.72;-72.71;128.85;-87.29;0
-15.58;-14.57;-2.02;-39.7;103.86;-78.87;0
-20.31;-17.06;-3.8;-26.48;44.57;-46.87;0
-18.99;-14.1;-5.24;-18.8;-5.51;-15.13;0
-15.29;-9.92;-6.27;5.07;-27.08;19.95;0
-9.39;-6.62;-8.94;38.81;-7.53;51.59;0
-4.6;-4.4;-11.31;63.81;17.85;73.59;0
-0.15;-3.1;-12.66;61.16;-5.22;83.8;0
3.76;-5.88;-13.5;18.3;-79.25;76.8;0
7.44;-12.51;-14.16;-47.08;-176.61;39.32;0
8.75;-19.67;-13.41;-132;-246.18;-39.34;0
6;-19.67;-10.48;-188.32;-246.18;-123.32;0
-3.83;-19.67;-6.19;-175.43;-10.76;-144.42;0
-0.14;-13.66;-1.67;-110.11;166.27;-29.42;0
4.84;-3.92;-4.81;9.73;123.55;126.69;0
13.04;-7.63;-8.46;145.46;139.81;185.22;0
16.44;-11.44;-11.93;194.1;173.52;136.16;0
15.83;-8.13;-16.74;157.59;122.89;31.11;0
11.37;-4;-20.19;82.42;25.99;-87.38;0
6.11;-3.77;-21.23;-3.77;-75.1;-200.21;0
-2.26;-11.95;-19.06;-94.17;-148.48;-240.23;0
-11.08;-15.37;-16.86;-165.42;-140.34;-209.25;0
-15.39;-13.3;-13.91;-206.01;-20.33;-138.45;0
-13.2;-11.19;-9.55;-215;81.17;-54.29;0
-8.68;-9.42;-4.45;-183.35;94.07;-2.03;0
-2.84;-9.32;-1.55;-114.32;72.14;28.71;0
4.21;-9.99;-4.74;-39.84;42.81;22.71;0
6.91;-10.47;-8.05;27.78;36.97;-3.93;0
5.48;-9.83;-10.38;54.39;56.94;-37.83;0
3.54;-8.49;-12.54;33.6;83.78;-62.17;0
1.05;-7.22;-13.68;-6.16;98.41;-79.1;0
-0.43;-7.4;-14.29;-39.19;100.42;-92.91;0
-1.66;-8.35;-13.9;-58.92;86.04;-102.29;0
-2.03;-9.98;-13;-70.61;65.91;-102.31;0
-2.47;-11.38;-12.38;-76.16;58.98;-94.87;0
-2.77;-11.82;-11.89;-82;70.36;-85;0
-2.36;-11.69;-11.21;-85.13;84.98;-74.74;0
-1.15;-11.99;-10.18;-84.03;84.17;-68.71;0
-0.34;-13.83;-9.15;-77.48;82.73;-74.07;0
-0.73;-15.75;-7.75;-61.78;78.08;-88.78;0
-3.11;-14.91;-6.23;-39.01;78.37;-101.63;0
-6.93;-13.19;-6.11;-7.52;96.25;-103.6;0
-9.5;-11.61;-6.42;18.73;77.83;-93.29;0
-11.38;-10.93;-7.52;32.42;40.4;-83.04;0
-12.69;-10.8;-8.68;34.58;16.43;-74.84;0
-13.22;-10.52;-9.39;32.8;22.93;-53.52;0
-12.34;-9.1;-8.76;31.64;24.92;-18.99;0
-7.48;-8.03;-7.78;32.34;19.97;0.6;0
-5.51;-8.43;-7.92;38.34;29.77;22.62;0
-3.02;-9.7;-9.03;53.87;40.29;35.19;0
-0.87;-12.01;-10.17;73.29;39.34;40.32;0
-0.73;-14.15;-11.18;91.07;25.38;32.68;0
-2.38;-15.27;-11.77;98.09;-14.66;23.26;0
-5.36;-14.02;-12.44;109.07;-93.08;35.42;0
-7.7;-12.79;-13.21;127.57;-163.95;55.66;0
-9.09;-11.46;-13.29;132.18;-140.8;74.04;0
-8.87;-11.85;-12.89;107.95;-60.45;111.7;0
-6.65;-12.35;-12.94;67.16;-46.51;174.06;0
-3.84;-13.93;-12.97;24.84;-66.97;217.69;0
-0.08;-18.94;-13.64;-12.61;-54.02;224.31;0
3.72;-19.67;-13.02;-34.82;4.78;197.2;0
7.11;-19.67;-11.2;-41.96;94.98;169.96;0
8.54;-15.97;-5.15;-27.43;164.7;150.66;0
6.77;-12.69;2.01;45.87;70.98;145.23;0
7.03;-11.83;-7.46;95.78;50.3;140.86;0
5;-7.47;-9.54;104.16;48.15;117.74;0
4.9;-4.95;-10.35;93.23;18.19;91.87;0
3.82;-4.92;-11.23;72.64;-18.42;69.08;0
1.56;-5.04;-12.21;49.09;-47.88;58.71;0
-0.36;-5.32;-12.72;24.58;-60.09;57.26;0
-1.83;-5.35;-12.62;2.55;-60.26;65.32;0
-2.62;-6.22;-11.83;-13.66;-46.51;77.7;0
-2.28;-6.94;-10.61;-19.73;-31.77;92.32;0
-0.76;-6.46;-9.59;-15.72;-39.06;97.65;0
0.9;-6.01;-8.84;2.3;-57.27;89.35;0
2.13;-5.93;-8.6;26.2;-72.35;71.09;0
2.64;-5.47;-9.43;44.92;-77.08;55.16;0
3.15;-5.55;-10.86;58.83;-72.93;41.58;0
3.21;-5.45;-12.13;64.2;-69.05;31.22;0
3.33;-5.42;-12.93;54.62;-66.86;21.3;0
2.82;-5.27;-13.03;31.81;-82.34;7.05;0
1.75;-5.51;-12.81;-0.89;-113.3;-15.4;0
0.32;-6.61;-11.44;-39.41;-154.09;-49.07;0
-1.46;-8.33;-8.6;-78.63;-194.75;-90.02;0
-4.76;-10.78;-4.32;-110.28;-171.93;-127.18;0
-10.74;-15.77;-0.69;-124.93;-68.38;-148.19;0
-15.46;-17.24;-2.32;-107.04;59.4;-132.05;0
-16.55;-16.38;-4.66;-77.84;115.44;-80.19;0
-12.55;-13.25;-4.46;-50.08;117.56;-17.56;0
-8.45;-7.55;-4.7;-31.97;105.72;40.63;0
-3.41;-5.1;-6.4;-12.22;55.72;82.75;0
2.75;-9.72;-7.21;1.2;-28.19;99.71;0
7.39;-19.67;-8.23;-17.06;-87.31;48.13;0
7.7;-19.67;-10.66;-52.15;-59.97;-65.9;0
0.14;-19.67;-10.34;-51.39;-9.2;-121.68;0
-1.32;-10.98;-7.37;-29.82;11.4;-50.62;0
3.28;-4.41;-10.99;37.26;22.62;22.54;0
6.05;-3.09;-12.46;99.51;57.74;55.98;0
8.27;-3.18;-15.3;121.6;62.83;58.26;0
8.43;-5.28;-18.27;109.78;69.74;5.64;0
7.29;-5.72;-20.98;63.63;13.06;-80.03;0
4.79;-8.29;-22.07;-12.16;-80.28;-144.81;0
-1.83;-11.09;-20.74;-114.21;-146.03;-149.68;0
-5.26;-11.48;-16.52;-199.96;-131.22;-132.64;0
-6.07;-11.55;-11.54;-245.62;-29.31;-114.35;0
-5.19;-11.73;-6.49;-249.67;57.07;-73.08;0
-2.92;-9.99;-1.63;-220.77;54.89;-33.39;0
0.5;-11.23;-1.48;-144.72;35.84;-13.92;0
3.26;-11.68;-3.63;-45.93;37.29;-15.43;0
3.52;-10.92;-6.1;37.77;58.4;-16.42;0
2.95;-9.53;-8.92;76.3;86.32;-19.6;0
2.75;-8.8;-12.11;75.57;111.48;-32.53;0
2.41;-8.11;-14.91;51.98;128.02;-59.44;0
0.64;-8.32;-15.87;16.13;110.49;-71.99;0
-0.96;-8.25;-15.13;-22.35;71.93;-82.23;0
-2.01;-8.96;-14.5;-61.19;35.69;-90.74;0
-3.09;-9.78;-13.56;-93.01;29.62;-93.57;0
-3.42;-10.7;-12.51;-125.55;42.18;-86.02;0
-2.97;-11.3;-11.77;-141.2;45.55;-73.45;0
-2.07;-11.62;-10.43;-124.83;38.91;-67.12;0
0.03;-12.34;-7.1;-82.14;27.49;-67.2;0
1.64;-13.03;-5.77;-29.05;24.65;-71.63;0
1.9;-12.61;-7.46;2.49;49.05;-83.35;0
0.65;-10.91;-9.59;2.41;55.59;-95.73;0
-1.25;-9.73;-10.31;-9.89;74.09;-103.45;0
-4.6;-9.89;-9.87;-13.17;93.07;-100.78;0
-7.94;-11.07;-9.6;1.37;81.96;-91.58;0
-11.5;-11.71;-9.04;21.92;52.3;-83.65;0
-14.07;-10.41;-7.81;28.17;56.75;-68.39;0
-13.15;-8.75;-8.15;34.71;47.69;-32.49;0
-9.57;-7.93;-8.8;47.94;39.68;16.25;0
-5.06;-8.86;-10.27;58.6;29.6;45.45;0
-2.25;-10.73;-11.72;64.87;18.55;49.06;0
-1.92;-12.67;-12.23;66.64;5.69;38.98;0
-3.72;-14.5;-11.75;71.09;-26.62;27.48;0
-5.24;-15.9;-11.13;73.68;-57.99;27.63;0
-6.38;-15.14;-10.7;74.14;-79.72;42.82;0
-6.65;-14.25;-10.85;83.78;-116.32;66.37;0
-4.78;-12.9;-11.52;89.71;-119.77;92.87;0
-3.34;-12.96;-12.41;87.44;-94.64;110.61;0
-3.05;-13.54;-12.94;84.38;-66.76;126.55;0
-0.68;-15.28;-13.01;62.74;-44.58;150.16;0
0.8;-15.14;-12.88;40.51;-20.6;165.71;0
2.67;-17.14;-11.84;11.52;-11.02;162.42;0
4.35;-16.91;-11.08;-9.87;13.78;152.95;0
5.27;-15.32;-9.97;-16.56;56.07;139.53;0
5.17;-12.91;-8.03;-11.95;86.95;130.01;0
4.67;-10.41;-6.1;6.67;83.28;128.01;0
3.8;-8.57;-6.66;31.54;55.77;126.2;0
4.06;-7.82;-9.49;44.71;24.83;110.69;0
3.69;-6.84;-10.6;46.81;-13.7;87.18;0
2.97;-6.44;-11.03;39.74;-49.4;73.59;0
1.44;-6.71;-11.36;30.58;-70.32;67.26;0
0.26;-7.04;-11.49;20.21;-75.17;68.21;0
-0.69;-7.66;-11.23;9.36;-75.91;74.57;0
-0.72;-8.22;-10.62;1.12;-70.37;82.99;0
0.32;-8.49;-9.82;0.39;-61.54;90.74;0
1.94;-8.2;-9.24;9.2;-69.41;90.19;0
3.44;-7.5;-9.18;25.44;-77.28;79.89;0
4.19;-6.96;-9.73;39.51;-78.59;68.17;0
4.35;-6.49;-10.49;47.74;-69.95;57.04;0
4.36;-5.49;-11.22;48.36;-49.82;43.62;0
4.04;-4.53;-11.69;43.92;-26.91;31.57;0
3.4;-4.03;-11.99;37.49;-15.55;17.9;0
2.88;-3.85;-11.57;24.31;-21.1;-1.45;0
1.78;-3.98;-10.95;1.32;-51.47;-25.91;0
0.24;-4.94;-9.5;-30.87;-108.25;-57.03;0
-2.11;-7.57;-6.46;-63.26;-175.05;-99.16;0
-7.03;-11.35;-4.89;-70.93;-157.63;-150.55;0
-14.05;-15.72;-6.7;-56.13;-51.89;-170.98;0
-19.37;-18.47;-7.01;-49.96;57.84;-127.01;0
-19.09;-16.93;-4.76;-51.82;101.31;-45.23;0
-11.58;-13.75;-4.23;-47.56;117;-5.79;0
-10.17;-9.28;-4.72;-29.11;107.44;33.99;0
-4.94;-7.75;-6.54;-6.92;34.73;78.57;0
1.34;-10.13;-8.43;5.2;-82.27;113.3;0
9.65;-19.67;-11.88;-4.77;-97.92;89.08;0
13.49;-19.67;-14.68;-30.62;-16.96;0.7;0
7.7;-10.59;-10.47;-4.84;43.23;-17.62;0
6.81;-3.08;-11.37;33.46;61.88;16.56;0
7.76;-1.79;-13.27;49.81;46.62;29.18;0
9.41;-2.07;-15;33.13;23.04;2.13;0
8.74;-5.1;-15.9;4.68;37.8;-58.07;0
6.55;-9.59;-17.45;-35.58;27.97;-119.91;0
3.15;-13.49;-16.36;-74.53;-19.57;-155.87;0
-0.71;-14.31;-14.71;-113.16;-55.11;-151.39;0
-4.32;-13.74;-11.96;-133.68;-47.89;-123.23;0
-4.61;-11.58;-10.27;-127;16.98;-101.84;0
-3.74;-9.49;-9.13;-103.22;65.54;-79.24;0
-1.51;-8.22;-9.06;-86.71;71.01;-58.42;0
0.37;-7.98;-8.86;-73.77;63.62;-45.71;0
2.08;-8.51;-9.03;-52.92;63.36;-42.79;0
2.76;-9.24;-10.11;-31.99;76.19;-49.13;0
2.74;-9.86;-11.77;-24.18;88.69;-56.23;0
2.38;-10.2;-13.04;-29.45;91.44;-65.84;0
1.55;-10.18;-13.59;-40.58;86.37;-77.43;0
0.07;-10.07;-13.33;-47.64;71;-90.27;0
-1.94;-10.22;-12.49;-48.99;58.27;-94.91;0
-3.47;-10;-11.83;-54.08;45.63;-92.32;0
-4.69;-9.93;-10.94;-65.47;27.09;-86.97;0
-4.23;-9.56;-10.14;-76.64;25.02;-76.71;0
-3.51;-9.06;-9.06;-71.96;29.01;-64;0
-2.15;-8.96;-9.1;-44.51;19.78;-56.98;0
-0.7;-9.11;-9.69;-18.12;18.36;-59.97;0
0.48;-9.74;-10.26;-13.48;33.73;-60.07;0
1.1;-10.1;-10.67;-22.81;43.86;-58.74;0
1.51;-10.41;-10.82;-32.62;59.19;-63.76;0
0.64;-11.03;-9.55;-35.96;94.9;-71.58;0
-2.17;-10.84;-7.97;-19.95;125.94;-72.98;0
-5.23;-10.71;-7.87;8.83;124.51;-67.02;0
-8.11;-10.48;-9.08;31.56;92.04;-63.03;0
-10.65;-10.18;-9.28;38.81;59.65;-61.08;0
-12.12;-9.41;-9.3;33.79;52.99;-40.36;0
-10.25;-7.65;-9.92;39.69;35.65;-9.2;0
-8.08;-7.88;-10.5;54.24;14.56;18.78;0
-6.2;-9.92;-11.84;67.87;-18.73;34;0
-6.61;-13.15;-12.08;75.26;-57;33.75;0
-8.32;-16.47;-11.94;76.1;-89.15;30.87;0
-9.14;-17.9;-11.43;69.04;-98.25;43.48;0
-8.7;-16.8;-11.04;62.24;-118.19;72.87;0
-6.06;-15.71;-11.95;67.26;-153.64;106.17;0
-3.39;-15.44;-12.57;79.35;-140.65;129.18;0
-2.15;-15.6;-13.35;86.23;-104.47;145.78;0
-0.85;-15.34;-13.34;80.2;-55.82;161.28;0
0.14;-15.59;-13.03;68.52;-18.14;172.36;0
2.24;-17.35;-12.52;49.58;2.36;175.79;0
4.02;-17.91;-11.18;22.02;7.35;174.38;0
5.26;-17.23;-10.74;4.9;39.23;161.93;0
4.94;-15.33;-9.66;5.57;79.31;146.44;0
4.28;-12.64;-9.04;11.49;91.72;143.79;0
3.46;-10.93;-9.19;18.83;60.46;143.49;0
3.56;-9.3;-9.94;28.29;-9.63;130.35;0
3.77;-8.39;-10.64;33.58;-74.94;106.99;0
3.25;-8.29;-11.36;29.03;-111.11;95.84;0
1.76;-8.4;-11.65;19.93;-115.56;98.48;0
0.79;-8.59;-11.74;11.87;-109.95;105.9;0
0.86;-8.57;-10.61;9.27;-89.56;116.39;0
1.44;-8.06;-9.16;14.2;-85.22;124.81;0
3;-7.68;-8.62;28;-95.26;124.55;0
4.85;-6.6;-9.11;45.1;-98.55;113.2;0
5.94;-5.73;-9.82;56.07;-82.93;96.9;0
6.55;-4.84;-10.61;59.13;-64.27;80.58;0
6.74;-3.96;-11.38;54.16;-39.83;62.34;0
6.99;-2.98;-11.89;45.31;-10.78;45.6;0
6.23;-2.15;-12.36;33.73;23.62;33.09;0
4.1;-1.48;-11.4;16.04;17.85;16.03;0
2.65;-1.49;-10.29;-8.8;-31.7;-17.35;0
0.64;-2.05;-8.29;-32.52;-134.44;-51.26;0
-0.87;-3.63;-7.17;-49.87;-246.18;-90.58;0
-3.7;-6.8;-5.66;-54.84;-246.18;-147.85;0
-8.93;-10.3;-7.92;-29.95;-246.18;-225.16;0
-18.38;-17.74;-9.73;-37.83;-76.35;-228.75;0
-20.31;-19.67;-5.66;-89.12;99.08;-132.43;0
-19.83;-19.67;-1.55;-120.79;235.4;-19.47;0
-11.84;-17.93;-0.5;-122.84;254.09;54.56;0
-3.47;-13.64;-2.91;-70.86;180.87;88.93;0
5.96;-16.72;-7.47;-14.11;1.66;80.35;0
16.97;-19.67;-13.08;8.17;-50.7;35.21;0
14.38;-19.67;-13.48;53.34;28.9;-16.18;0
8.56;-7.2;-12.84;80.69;79.58;-17.83;0
5.29;-3.46;-14.95;98.55;106.28;18.04;0
3.22;-2.5;-14.55;69.06;47.11;34.43;0
4.1;-2.9;-16.62;26.7;-34.7;-1.48;0
4.87;-5.02;-18.22;-18.74;-70.38;-78.87;0
3.02;-8.18;-17.62;-70.26;-68.96;-128.68;0
1.42;-10.44;-16.4;-124.49;-63.63;-151.87;0
-0.52;-11.94;-13.69;-170.72;-69.68;-133.43;0
-1.35;-12.71;-10.78;-196.24;-49.85;-97.44;0
-0.2;-12.53;-8.7;-194.66;4.45;-75.26;0
1.57;-12.32;-7.3;-161;67.75;-69.81;0
2.8;-11.62;-6.3;-113.88;104.58;-68.51;0
2.57;-10.53;-5.75;-62.79;99.07;-59.68;0
2.02;-10.32;-6.76;-10.85;79.87;-57.34;0
1.17;-10.06;-8.69;26.25;75.79;-63.58;0
0.07;-8.95;-10.6;44;82.98;-68.48;0
-1.04;-8.19;-12.46;45.47;98.11;-72.23;0
-2.36;-7.86;-13.01;39.87;102.04;-73.56;0
-3.84;-8.59;-13.72;27.32;73.98;-73.71;0
-4.83;-7.93;-14.35;-0.29;41.59;-67.97;0
-4.93;-7.54;-14.73;-33.24;39.27;-60.06;0
-4.51;-7.81;-14.62;-56.32;42.65;-50.58;0
-3.39;-8.09;-14.1;-74.02;41.96;-41.56;0
-1.81;-8.25;-13.5;-95.57;47.59;-36.25;0
-0.27;-8;-12.57;-115.74;55.98;-33.4;0
1.58;-8.48;-11.18;-116.82;56.41;-37.1;0
2.98;-9.37;-9.57;-100.42;61.75;-43.45;0
3.69;-10.53;-8.24;-76.37;63.65;-48.84;0
3.62;-11.69;-8.81;-42.11;54.33;-62.26;0
1.82;-12;-10.01;-14.38;53.02;-83.86;0
-1.66;-11.33;-10.63;-12.41;76.43;-99.56;0
-4.96;-10.85;-9.9;-29.23;87.43;-96.47;0
-7.43;-10.38;-8.87;-35.82;78.54;-84.41;0
-9.35;-9.82;-7.26;-24.62;67.94;-69.55;0
-9.91;-9.79;-6.28;-7.57;68.01;-43.64;0
-8.91;-10.35;-5.95;14.02;66.81;-11.6;0
-7.23;-11.8;-6.65;39.62;60.59;9.01;0
-6.76;-13.54;-8.88;62.99;32.73;16.13;0
-6.04;-15.76;-10.83;79.91;-28.02;10.32;0
-7.88;-18.28;-11.71;90.44;-76.98;16.38;0
-9.48;-18.6;-11.06;94.35;-82.15;33.57;0
-8.42;-16.33;-10.46;94.09;-68.89;63.45;0
-6.5;-14.99;-10.46;96;-78.91;97.67;0
-4.56;-15.05;-11.69;102.98;-94.68;129.32;0
-2.43;-15.73;-13.31;110.9;-67.5;145.41;0
-2.08;-16.39;-14;115.4;-31.99;154.22;0
-1.43;-16.83;-14.47;110.23;4.33;158.24;0
-0.03;-16.31;-13.66;88.23;30.17;157.45;0
1.22;-15.45;-12.19;50.15;35.41;160.19;0
2.18;-15.1;-11.55;10.49;32.36;158.48;0
3;-14.65;-11.39;-7.64;45.36;148.67;0
3.3;-13.48;-10.98;-10.02;75.39;138.16;0
2.87;-11.37;-10.36;-1.85;88.73;133.8;0
2.67;-9.16;-9.89;9.37;68.87;134.97;0
1.98;-7.57;-9.86;18.8;17.75;131.45;0
1.77;-7.29;-10.15;23.77;-47.28;123.54;0
1.93;-7.16;-10.86;26.59;-83.31;114.75;0
0.79;-6.95;-11.23;28.74;-94.76;109.06;0
-0.45;-6.93;-11.05;28.05;-98.35;114.98;0
-0.47;-7;-10.75;25.93;-99.01;125.43;0
0.7;-6.96;-10.67;25.86;-104.22;129.04;0
2.19;-6.55;-11.07;29.29;-113.21;127.97;0
3.36;-5.89;-11.38;33.19;-114.46;120.32;0
3.84;-5.32;-11.65;37.6;-114.1;106.85;0
4.3;-5.21;-11.79;39.38;-108.81;91.53;0
5.29;-5.27;-12.18;37.45;-96.19;73.19;0
5.93;-5.15;-12.36;32.38;-74.29;54.05;0
6.85;-4.92;-13.2;24.46;-44.57;38.61;0
7.04;-5.03;-13.72;11.68;-13.49;29.19;0
6.79;-5.38;-13.32;-3.13;0.5;22.38;0
7.08;-5.92;-11.89;-25.06;-12.02;3.09;0
5.72;-7.18;-9.98;-55.33;-68.96;-27.84;0
4.11;-8.88;-7.82;-85.32;-149.42;-65.31;0
0.25;-10.38;-2.29;-109.4;-246.18;-121.04;0
-7.99;-12.69;0.42;-72.16;-233.18;-204.49;0
-17.59;-18.21;-7.86;-21.91;-15.68;-250.61;0
-20.31;-19.67;-6.84;-40.61;79.4;-207.23;0
-20.31;-19.67;-2.39;-87.48;118.3;-78.27;0
-17.79;-14.55;2.54;-92.39;112.03;8.58;0
-12.91;-9.03;-0.47;-53.43;50.86;43.97;0
-8.73;-5.77;-6.62;-1.55;44.19;64.09;0
-2.94;-4.43;-11.35;55.35;60.2;89.52;0
1.71;-4.31;-10.58;77.53;86.82;113.13;0
7.08;-15.44;-9.14;22.1;13.65;125.49;0
13.63;-19.67;-15.61;-34.33;-207.1;74.64;0
12.6;-19.67;-17.47;-37.02;-246.18;-31.22;0
5.01;-14.36;-13.64;-72.45;-91.64;-81.72;0
0.77;-10.61;-11.72;-63.98;39.8;-45.72;0
2.86;-4.87;-10.53;-62.08;73.13;13.71;0
6.61;-5.16;-12.35;-42.85;67.16;26.49;0
7.86;-6.3;-12.25;-26.32;66.92;8.05;0
6.51;-8.42;-11.47;-9.58;52.9;-29.67;0
5.58;-9.03;-10.75;-2.85;29.16;-76.87;0
4.11;-9.85;-12.64;-15.81;2.85;-121.22;0
-0.76;-11.4;-14.61;-44.27;-14.93;-116.08;0
-4.41;-10.77;-14.1;-70.8;24.62;-94.31;0
-6.07;-9.31;-12.91;-88.64;80.16;-72.81;0
-4.93;-8.72;-12.15;-101.34;98.3;-58.08;0
-3.6;-9.11;-11.58;-107.32;91.2;-43.36;0
-2.31;-9.43;-10.99;-99.32;89.34;-32.16;0
-1.35;-9.41;-10.17;-77.17;97.48;-23.48;0
-0.55;-8.88;-10.19;-52.44;107.72;-19.23;0
0.35;-8.74;-10.97;-35.51;100.38;-26.41;0
0.28;-8.26;-11.48;-29.14;79.93;-37.32;0
0.08;-8.12;-12.06;-30.2;60.65;-47.65;0
0.13;-8.23;-12.22;-35.26;59.24;-55.07;0
-0.03;-8.8;-12.24;-42.89;61.49;-59.68;0
-0.45;-9.36;-12.22;-48.91;60.22;-61.03;0
-0.47;-9.68;-12.07;-51.16;64.2;-62.36;0
-0.99;-10.03;-11.39;-49.01;65.85;-64.05;0
-1.43;-9.91;-10.42;-44.55;66.74;-65.32;0
-1.4;-9.92;-10.01;-35.3;72.28;-62.69;0
-1.26;-10.33;-10.16;-22.24;81.25;-60.68;0
-1.16;-10.78;-10.77;-8.97;87.52;-60.03;0
-1.44;-10.96;-10.9;-2.53;79.64;-60.88;0
-2.03;-10.76;-10.65;-8.29;69.01;-61.19;0
-2.4;-10.77;-10.19;-26.16;81.27;-58.66;0
-2.67;-11.41;-9.51;-31.89;109.54;-56.59;0
-3.92;-12.43;-9.08;-8.48;141.62;-54.51;0
-6.23;-13.05;-10.05;38.3;133.4;-58.59;0
-9;-12.36;-10.81;64.9;71.75;-66.29;0
-11.71;-10.53;-11.11;52.1;29.54;-64.03;0
-12.8;-8.44;-11.75;32.95;29.3;-38.95;0
-10.77;-6.93;-11.29;25.88;65.02;7.4;0
-6.49;-8.67;-10.18;21.69;86.78;43.77;0
-1.51;-11.38;-8.81;18.2;109.23;43.79;0
0.68;-13.08;-6.72;20;120.22;32.72;0
-0.05;-14.93;-5.82;49.87;106.87;15.05;0
-3.61;-15.51;-7.96;99.67;82.16;4.64;0
-7.15;-13.79;-10.81;136.97;37.96;-0.4;0
-10.36;-12.48;-12.09;161.32;-60.19;-1.42;0
-13.37;-12.58;-11.82;170.04;-140.19;4.09;0
-13.04;-11.69;-12.57;153.56;-134.43;36.24;0
-11.03;-10.26;-13.81;133;-119.52;95.79;0
-8.8;-10.43;-14;105.14;-118.21;163.19;0
-6.27;-12.09;-14.72;66.94;-114.66;221.57;0
-3.93;-14.4;-15.04;26.98;-91.99;248.02;0
-1.04;-19.04;-14.37;-7.34;-52.54;239.39;0
2.94;-19.67;-13.75;-38.57;14.36;201.29;0
5.04;-19.67;-11.52;-53.64;66.78;164.28;0
7.6;-19.24;-8.34;-47.37;118.81;140.13;0
6.93;-14.48;-2.41;-25.76;130.72;129.54;0
3.66;-11.8;-3.1;30.14;58.55;132.79;0
3.25;-10.65;-9.25;56.63;39.86;130.26;0
2.19;-7.58;-10.13;63.51;12.13;110.61;0
1.44;-6.23;-10.32;64.4;-46.22;83.48;0
1.34;-5.56;-11.16;56.02;-89.86;61.45;0
0.39;-6.01;-12.17;36.78;-117.55;52.49;0
-0.97;-6.51;-13.09;10.9;-125.39;60;0
-2.42;-6.91;-13.26;-11.7;-112.07;78.71;0
-2.29;-7.14;-12.12;-27.46;-90.27;96.81;0
-0.56;-7.33;-10.69;-38.18;-80.25;100.91;0
1.41;-6.85;-8.63;-35.77;-89.14;98.71;0
3.38;-5.61;-7.58;-13.79;-108.42;81.7;0
4.67;-4.64;-8.22;8.03;-120.46;57.77;0
5.22;-3.36;-9.07;17.99;-120.06;30.97;0
4.69;-2.96;-9.83;19.97;-111.4;10.71;0
4.07;-2.71;-10.62;14.55;-103.73;-3.52;0
4.09;-2.57;-10.88;3.43;-93.94;-16.45;0
4.09;-2.7;-10.83;-8.77;-88.88;-27.47;0
3.76;-3.39;-10;-21.14;-96.54;-37.68;0
3.15;-5.44;-8.19;-44.35;-132.41;-50.29;0
3.27;-9.34;-5.57;-72.24;-195.3;-79.1;0
0.3;-13.66;0.48;-74.03;-219.48;-115.3;0
-7.91;-16.6;0.81;-38.06;-119.17;-151.24;0
-16.46;-19.26;-6.69;-26.38;99.11;-150.71;0
-19.32;-19;-8.28;-48.13;226.11;-94.87;0
-20.31;-16.35;-7.6;-82.45;254.09;-25.6;0
-16.72;-10.65;-4.7;-96.47;227.26;8.13;0
-14.5;-6.05;-3.82;-74.28;177.42;36.14;0
-10.26;-2.93;-6.83;-15.81;128.99;66.33;0
-4.55;-0.84;-8.44;45.31;50.87;90.24;0
0;-1.41;-7.44;42.85;-70.22;92.26;0
4.84;-8.87;-8.72;-3.61;-246.18;72.87;0
8.64;-19.67;-15.03;-31.64;-246.18;-30.62;0
8.48;-19.67;-18.44;-78.07;-246.18;-164.59;0
4.37;-19.67;-14.09;-104.59;-138.66;-146.36;0
1.88;-9.85;-8.07;-83.29;49.11;-18.37;0
5.24;0.58;-10.31;-19.19;129.26;83.78;0
8.79;1.27;-11.56;43.92;128.26;148.14;0
11.06;-3.1;-13.45;89.01;133.2;149.13;0
9.99;-7.37;-15.57;91.75;155.79;65.84;0
8.93;-5.98;-16.1;59.03;122.42;-33.91;0
8;-7.57;-17.95;3.27;26.32;-121.15;0
4.07;-12.05;-18.55;-72.73;-54.07;-172.57;0
-1.33;-12.65;-15.82;-135.64;-75.07;-171.85;0
-5.53;-12.48;-12.94;-172.06;-30.02;-147.29;0
-6.8;-11.37;-11.19;-177.87;47.54;-108.81;0
-6.86;-10.92;-9.9;-157.94;91.24;-65.13;0
-5.75;-9.26;-8.97;-119.55;103.25;-36.53;0
-3;-8.11;-9.3;-79.87;100.18;-28.35;0
-0.59;-7.64;-10.23;-45.64;104.36;-22.36;0
1.33;-8.27;-11.52;-28.03;108.34;-13.62;0
3.07;-8.87;-12.7;-24.87;99.24;-19.29;0
4.2;-9.12;-13.07;-34.19;96.23;-40.55;0
4.21;-9.75;-12.77;-55.11;87.38;-68.62;0
3.52;-10.3;-11.81;-79.06;64.17;-97.83;0
1.21;-11.23;-10.01;-87.47;56.4;-120.94;0
-2.04;-12.41;-7.11;-68.29;61.58;-124.26;0
-4.41;-13.3;-5.35;-20.34;100.99;-106;0
-5.37;-12.28;-8.51;24.83;111.88;-86.89;0
-4.98;-10.5;-11.85;33.16;71.04;-79.79;0
-4.4;-9.58;-13.76;17.3;32.11;-78.1;0
-4.14;-9.57;-13.99;-13.32;18.94;-79.21;0
-3.67;-9.14;-13;-55.35;29.39;-75.88;0
-3.26;-8.79;-10.48;-92.64;55.36;-76.47;0
-4.52;-11.07;-3.59;-77.24;87.76;-74.52;0
-6.34;-13.75;-3.36;16.78;124.59;-61.1;0
-8.53;-13.07;-9.39;76.94;141.14;-55.79;0
-9.44;-10.83;-10.9;83.76;92.61;-53.21;0
-9.72;-8.43;-10.37;61.16;75.79;-47.93;0
-9.99;-7.42;-9.76;50.25;101.4;-17.13;0
-8.49;-7.42;-8.88;63.24;101.04;23.64;0
-5.37;-8.87;-8.86;83;105.08;38.05;0
-4.22;-10.68;-9.27;96.78;94.81;40.26;0
-5.37;-13.27;-9.89;103.32;60.05;30.47;0
-7.84;-15.84;-10.18;105.19;-4.31;26.71;0
-10.12;-16.71;-11.37;111.98;-90.94;40.87;0
-10.92;-16.35;-12.72;124.78;-164.35;71.18;0
-9.95;-14.97;-13.15;116.88;-169.07;102.75;0
-8.18;-13.77;-13.8;100.89;-164.89;141.68;0
-5.34;-13.43;-13.64;77.38;-134.44;180.39;0
-2.37;-14.32;-13.94;50.49;-94.14;206.64;0
0.26;-15.98;-13.93;22.03;-47.62;216.48;0
2.64;-18.98;-13.21;-13.06;-5.57;213.92;0
6.36;-19.67;-12.6;-42.6;39.95;193.93;0
9.04;-19.67;-9.51;-56.35;75.17;172.51;0
8.41;-15.95;-5.8;-46.54;109.98;159.68;0
6.47;-12.31;-1.12;-19.35;83.31;152.15;0
4.55;-12.04;-6.51;28.56;66.82;141.41;0
3.26;-9.16;-8.93;47.81;60.56;124.45;0
3.32;-6.1;-10.05;50.35;3.63;93.99;0
3.45;-6.06;-11.24;40.55;-55.03;63.7;0
1.89;-6.91;-12.29;23.04;-96.83;52.06;0
0.48;-7.23;-12.71;4.97;-101.62;55.42;0
-0.47;-7.32;-12.64;-9.19;-81.41;64.54;0
-0.62;-7.39;-12.33;-20.67;-60.42;73.26;0
-0.2;-7.59;-11.11;-28.71;-52.5;82.28;0
0.47;-7.45;-9.76;-30.41;-54.06;87.51;0
2.19;-7.31;-7.81;-13.61;-77.77;81.84;0
3.88;-6.83;-7.97;19.26;-94.31;65.19;0
4.2;-6.21;-9.2;47.07;-93.09;49.91;0
3.79;-5.74;-10.26;60.94;-93.34;39.34;0
4.02;-5.11;-11.44;62.92;-86.77;29.98;0
4.11;-4.63;-11.95;56.01;-73.42;20.13;0
3.84;-4.4;-12.11;39.88;-68.38;3.2;0
3.35;-4.39;-11.65;12.38;-84.78;-19.55;0
2.48;-4.73;-10.69;-25.9;-125.88;-43.33;0
0.78;-5.79;-9.22;-64.63;-163.63;-67.84;0
-1.95;-8.39;-6.62;-87.3;-170.2;-100.45;0
-6.17;-11.43;-4.19;-78.16;-121.2;-132.97;0
-11.54;-13.98;-5.8;-64.63;-0.58;-147.77;0
-15.53;-15.62;-6.44;-66.12;125.22;-130.03;0
-17.25;-15.37;-4.45;-79.13;184.34;-76.64;0
-17.39;-14.35;-2.22;-90.49;140.73;-19.06;0
-14.74;-11.01;-1.53;-64.91;69.59;5.08;0
-11.57;-6.61;-5.32;-24.06;14.52;18.8;0
-8.73;-4.05;-8.7;33;-9.56;43.87;0
-3.26;-2.63;-9.93;89.68;-36.71;70.06;0
2;-4.55;-9.85;77.66;-106.4;74.17;0
4.64;-14.47;-12.97;9.8;-233.9;64.46;0
7.82;-19.67;-18.03;-84.28;-246.18;-9.06;0
6.79;-19.67;-19.07;-137.56;-201.45;-95.91;0
2.37;-17.23;-9.94;-128.74;15.85;-75.11;0
3.53;-4.84;-6.09;-95.65;84.54;25.74;0
7.16;-0.04;-9.45;-10.45;58.65;100.51;0
10.89;-3;-10.35;75.68;59.07;117.69;0
10.7;-6.79;-11.85;112.62;69.04;72.31;0
9.83;-7.47;-14.6;96.39;74.89;-20.91;0
8.27;-7.1;-17.97;43;36.98;-102.11;0
4.64;-13.27;-20.21;-42.15;-33.52;-151.4;0
-1.1;-14.05;-18.59;-126.6;-59.41;-151.06;0
-5.86;-12.29;-14.81;-187.65;-4.4;-118.61;0
-5.92;-10.39;-10.53;-213.29;94.33;-91.88;0
-4.81;-10.07;-7.13;-201.01;125.88;-55.88;0
-2.95;-9.69;-5.08;-144.54;115.46;-32.57;0
-1.37;-9.23;-6.45;-60.48;114.78;-23.16;0
-0.36;-9.1;-8.58;13.13;124.87;-14.58;0
0.19;-8.46;-10.59;46.62;123.07;-14.43;0
0.94;-8.34;-13.05;47.89;114.59;-23.87;0
1.31;-7.89;-14.74;31.01;104.4;-36.47;0
1.5;-7.62;-14.94;3.91;93.33;-55.38;0
0.81;-8.27;-14.41;-28.28;70.07;-73.77;0
0;-8.96;-13.4;-59.09;50;-87.37;0
-0.69;-9.79;-12.34;-82.49;39.42;-92.91;0
-0.72;-10.97;-11.05;-97.01;53.91;-88.82;0
-0.9;-11.6;-9.88;-97.77;78.86;-81.69;0
-1.33;-12.19;-7.92;-75;94.94;-73.7;0
-1.45;-11.99;-7.53;-25.43;75.07;-71.91;0
-2.08;-11.44;-9.54;15.52;47.61;-81.56;0
-2.88;-10.64;-11.05;22.78;28.41;-91.32;0
-2.74;-10.72;-12.01;9.34;11.63;-92.11;0
-2.57;-11.03;-12;-10.43;16.4;-88.78;0
-2.79;-10.57;-11.23;-37.68;41.78;-86.1;0
-3.52;-9.96;-9.93;-57.55;73.56;-84;0
-4.06;-10.63;-7.72;-51.77;106.44;-78.44;0
-6.78;-12.73;-5.96;-1.91;138.81;-70.54;0
-9.78;-12.59;-8.48;50.89;99.33;-66.97;0
-10.73;-11.31;-10.27;57.37;65.43;-63.85;0
-12.59;-10.05;-10.99;45.99;50.1;-49.5;0
-12.97;-9.01;-10.85;37.11;60.24;-20.33;0
-10.6;-8.84;-9.08;37.42;86.76;5.59;0
-8.47;-9.92;-6.92;47.84;100.69;40.88;0
-6.6;-12.67;-6.03;82.63;86.08;63.74;0
-6.2;-14.64;-9.55;115.24;72.73;68.68;0
-7.04;-14.85;-11.37;119.96;43.93;67.58;0
-8.32;-14.57;-12.45;121.07;-48.7;75.92;0
-7.85;-14.2;-12.97;121.79;-134.2;95.59;0
-7.14;-13.95;-13.42;98.59;-161.45;117.84;0
-6.3;-13.69;-14.06;69.87;-170.68;144.81;0
-4.17;-14.06;-14.09;43.48;-144.04;167.45;0
-1.82;-14.64;-13.91;19.78;-94.37;183.03;0
1.2;-15.71;-13.16;-0.53;-43.57;190.77;0
3.9;-17.89;-12.08;-18.01;-4;189.16;0
6.57;-19.34;-9.94;-33.9;28.15;181.49;0
8.85;-17.88;-5.07;-30.38;42.98;164.66;0
6.88;-15.6;-1.99;33.12;34.61;143.84;0
5.06;-13.98;-7.61;69.49;61.52;133.45;0
3.94;-10.7;-9.3;62.4;79.03;126.78;0
3.52;-7.97;-10.54;51.43;49.16;115.79;0
4.01;-6.31;-10.86;46.93;-0.18;91.34;0
3.97;-6.78;-11.43;38.07;-37.06;69.61;0
2.64;-6.94;-11.65;22.73;-61.41;59.75;0
0.89;-6.66;-11.39;7.64;-73.38;61.64;0
-0.32;-6.88;-11.09;-4.83;-71.51;70.99;0
-1.01;-7.33;-10.2;-13.9;-49.36;85.09;0
-0.68;-7.98;-9.07;-12.63;-36.35;97.45;0
0.28;-8.12;-8.45;2.24;-53.24;101.41;0
1.51;-7.65;-8.73;23.2;-70.71;95.93;0
2.8;-6.94;-10.01;39.9;-73.09;81.53;0
3.31;-6.11;-10.85;50.38;-71.63;64.76;0
3.92;-5.33;-11.62;54.68;-68.87;49.38;0
4.29;-4.91;-12.76;49.39;-56.4;36.58;0
4.45;-4.1;-13.43;37.07;-40.73;20.75;0
4.13;-3.22;-13.79;19.07;-33.43;1.8;0
3.88;-3.12;-12.74;-10.24;-47.96;-21.65;0
3.31;-3.85;-11.08;-49.64;-92.12;-48.76;0
2.52;-5.74;-8.9;-95.81;-150.89;-77.66;0
-0.51;-9.21;-5.5;-132.56;-206.81;-116.26;0
-6.99;-12.65;1.59;-118.71;-209.48;-173.2;0
-16.21;-18.42;-2.63;-71.82;-62.99;-197.2;0
-20.31;-19.67;-4.92;-56.71;75.94;-153.97;0
-20.31;-19.67;-1.23;-65.5;129.08;-57.82;0
-15.49;-13.98;0.54;-62.8;90;8.38;0
-11.9;-8.08;-2.59;-33.35;36.72;28.13;0
-7.81;-3.85;-7.17;4.29;47.27;52.47;0
-2.8;-2.03;-9.89;53.87;65.43;86.56;0
2.4;-2.85;-9.23;64.62;20.3;105.61;0
6.42;-13.13;-11.69;13.93;-106.8;103.58;0
10.38;-19.67;-16.05;-43.45;-246.18;19.37;0
8.04;-19.67;-17.58;-65.5;-237.93;-100.24;0
1.85;-19.67;-12.31;-81.2;-75.67;-119.94;0
0.57;-8.45;-6.99;-69.27;42.87;-28.46;0
4.12;-2.83;-10.32;-8.89;50.24;65.88;0
8.34;-2.01;-13.57;58.35;55.29;93.69;0
9.58;-3.99;-14.24;79.73;83.58;77.15;0
8.19;-7.65;-15.18;63.45;98.62;14;0
8.09;-7.78;-16.24;25.87;67.4;-64.68;0
6.3;-10.54;-17.9;-30.95;-2.09;-124;0
1.95;-12.92;-17.71;-98.13;-35.86;-143.19;0
-2.33;-12;-14.78;-151.51;-13.04;-130.72;0
-4.33;-10.39;-11;-180.42;46.14;-110.74;0
-4.73;-10.08;-9.03;-182.1;91.41;-80.56;0
-4.06;-10.21;-7.5;-153.22;88.95;-54.74;0
-2.92;-9.83;-7.31;-102.79;80.49;-36.59;0
-1.54;-9.26;-8.06;-39.41;90.1;-28.85;0
-0.13;-8.96;-9.7;4.3;97.08;-30.91;0
1.14;-8.42;-11.83;18.23;96.88;-40.1;0
1.61;-8.28;-13.8;8.03;86.36;-49.39;0
1.79;-8.02;-14.54;-15.74;76.55;-61.92;0
1.23;-8.79;-14.27;-44.35;67.01;-80.1;0
-0.19;-9.33;-13.31;-70.93;54.29;-95.75;0
-1.21;-9.82;-11.95;-89.5;42.43;-103.08;0
-1.95;-11.16;-9.52;-95.82;38.78;-100.75;0
-2;-12.74;-5.95;-80.43;54.28;-88.2;0
-2.01;-13.42;-5.9;-26.54;58.61;-76.65;0
-1.73;-12.29;-9.28;22;50.4;-80.84;0
-2.22;-10.49;-11.83;20.37;40.53;-87.89;0
-3.01;-10.09;-12.71;-10.54;25.02;-89.69;0
-3.86;-9.96;-12.13;-49.01;31.61;-92.3;0
-4.51;-9.97;-9.24;-78.39;63.9;-89.16;0
-6.02;-11.42;-4.34;-43.96;93.46;-76.67;0
-7.71;-12;-5.44;27.23;109.7;-58.18;0
-8.78;-11.71;-9.72;57.86;94.55;-47.43;0
-9.74;-10.68;-11.76;61.12;61.18;-51.7;0
-10.63;-9.77;-11.82;39.79;57.78;-46.71;0
-10.16;-8.82;-10.77;19.74;74.7;-17.13;0
-7.71;-8.21;-8.43;20.19;91.76;19.77;0
-5;-9.87;-5.4;47.98;95.27;36.76;0
-3.51;-12.12;-6.45;94.87;79.56;41.51;0
-4.35;-13.24;-8.66;120.26;95.92;33.46;0
-6.07;-13.75;-9.05;126.5;88.62;30.96;0
-8.54;-14.27;-10.12;124.28;30.34;42.97;0
-9.81;-14.13;-12.03;128.62;-66.32;66.17;0
-9.43;-14.27;-13.38;138.26;-156.52;90.39;0
-8.2;-14.05;-14.27;128;-176.74;111.18;0
-7.04;-14.58;-14.81;99.29;-173.86;138.34;0
-4.75;-14.22;-14.72;64.66;-137.09;165.07;0
-2.28;-14.51;-14.88;31.21;-95.28;186.65;0
0.31;-15.61;-14.57;-0.71;-56.01;196.69;0
2.64;-17.64;-13.74;-30.97;-27.47;195.77;0
6.14;-19.67;-12.46;-55.81;-3.19;178.26;0
8.56;-18.66;-9.99;-72.2;16.14;163.12;0
8.14;-15.1;-6.64;-70.62;34.05;151.71;0
6.49;-11.59;-0.48;-27.88;10.99;140.57;0
5.56;-11.43;-6.01;36.62;7.99;128.61;0
4.86;-8.83;-8.83;57.26;34.97;113.11;0
5.05;-6.09;-10.19;56.47;7.03;86.66;0
4.87;-5;-10.76;49.63;-44.89;58.7;0
3.21;-5.83;-11.88;33.29;-81.09;50.13;0
1.66;-6.32;-12.25;15.45;-89.52;51.27;0
0.61;-6;-12.08;0.34;-83.87;57.16;0
0.24;-5.82;-11.73;-14.9;-66.09;62.48;0
-0.2;-6.37;-10.67;-29.55;-47.93;70.52;0
0.1;-7.13;-9.25;-41.04;-42.35;80.77;0
1.49;-7.56;-7.07;-33.8;-55.09;81.52;0
2.96;-7.7;-6.87;0.48;-68.07;67.09;0
3.18;-7.62;-8.2;33.04;-64.05;53.38;0
3.34;-7.11;-9.16;52.59;-64.32;43.97;0
3.07;-6.47;-10.04;60.28;-70.22;31.84;0
2.28;-5.57;-10.79;60.19;-73.38;14.73;0
1.48;-5.34;-11.24;51.12;-85.1;-2.52;0
0.27;-5.7;-11.57;32.88;-101.41;-16.66;0
-0.96;-6.21;-10.83;2.81;-124.6;-29.94;0
-2.76;-7.69;-9.23;-34.35;-153.64;-44.79;0
-5.35;-9.76;-7.46;-66.73;-153.16;-63.99;0
-9.28;-11.49;-6.92;-75.13;-75.49;-81.8;0
-12.58;-13.02;-6.79;-71.03;39.81;-83.36;0
-14.27;-13.9;-3.73;-70.1;102.72;-49.42;0
-15.26;-13.96;0.68;-69.55;102.2;-1.45;0
-12.98;-12.39;2.9;-42.2;51.11;18.06;0
-12.01;-10.67;-0.06;-1.9;-1.45;22.83;0
-7.44;-7.86;-5.73;23.98;15.89;27.13;0
-3.87;-4.36;-9.35;61.04;94.48;42.74;0
0.24;-0.8;-9.53;94.39;136.62;60.06;0
3.09;-0.06;-9.21;64.53;42.49;66.84;0
6.1;-7.24;-13.96;8.85;-159.1;63.98;0
9.06;-19.67;-17.72;-60.42;-246.18;-28.79;0
9.17;-19.67;-18.77;-158.84;-246.18;-194.38;0
5.75;-19.67;-15.12;-212.55;-95.89;-250.61;0
0.4;-17.25;-6.77;-184.11;111.81;-136.81;0
-1;-1.64;-6.1;-96.24;166.43;64.06;0
1.29;2.98;-7.84;19.01;139.99;186.24;0
7.44;-4.11;-9.77;123.93;102.14;176.74;0
8.32;-9.73;-12.07;140.82;93.72;63.55;0
7.54;-6.81;-14.52;100.12;2.7;-51.26;0
5.87;-6.13;-17.53;33.95;-85.52;-110.3;0
2.77;-10.33;-20.59;-53.57;-89.49;-138.78;0
-2.3;-11.72;-18.5;-132.87;-38.79;-123.26;0
-5.21;-9.86;-14.37;-188.15;40.64;-88.16;0
-3.65;-9.65;-10.3;-215.62;99.93;-62.7;0
-2.53;-11.33;-6.93;-208.3;108.9;-47.98;0
-2.16;-11.31;-5.42;-149.98;92.57;-34;0
-1.44;-10.31;-6.54;-61.51;105.68;-28.84;0
-1.1;-9.52;-8.15;16.96;120.49;-23.21;0
-1.36;-8.37;-9.87;50.47;118.46;-17.81;0
-1.09;-7.86;-12.33;42.06;104.68;-22.24;0
-0.29;-7.56;-14.2;17.94;95.24;-27.92;0
-0.02;-7.7;-14.54;-7.96;90.55;-38.1;0
0;-8.72;-13.97;-33.68;80.56;-51.07;0
0.53;-9.76;-13.32;-61.61;63.69;-65.99;0
1.17;-10.4;-12.56;-88.05;60.94;-80.45;0
1.16;-10.71;-11.61;-105.31;64.47;-91.29;0
0.43;-10.9;-10.28;-103.93;68.9;-97.15;0
-1.8;-11.84;-7.51;-78.81;65.05;-97.21;0
-3.39;-12.3;-5.29;-35.68;47.36;-93.62;0
-4.05;-11.77;-6.76;4.01;37.71;-91.91;0
-3.74;-10.99;-8.81;9.77;38.18;-91.27;0
-3.36;-10.53;-9.45;-7.84;61.07;-84.62;0
-3.37;-10.74;-9.52;-15.42;105.03;-77.92;0
-4.3;-11.49;-9.78;8.68;133.62;-73.78;0
-6.19;-12.47;-10.5;35.81;120.2;-71.6;0
-9.49;-12.39;-11.42;52.59;62.6;-79.33;0
-12.31;-11.12;-10.85;43;46.56;-78.72;0
-13.79;-8.64;-10.17;23.7;89.74;-45.87;0
-9.63;-6.86;-8.34;23.81;107.87;3.82;0
-6.05;-8.33;-7.45;38.48;97.02;51.14;0
-1.83;-11.18;-7.23;57.65;99.56;59.68;0
-0.04;-13.93;-7.37;82.84;95.8;35.12;0
-2.02;-15.07;-8.68;108.6;93.54;7.79;0
-5.88;-14.19;-10.17;122.84;59.41;7.57;0
-9.15;-13.69;-11.67;128.61;-45.62;20.89;0
-11.58;-14.19;-12.75;138.98;-172.7;37.72;0
-11.92;-13.32;-13.33;137.13;-200.49;58.82;0
-11.54;-12.19;-13.99;117.41;-178.41;88.78;0
-9.26;-12.15;-14.22;94.71;-172.78;133.85;0
-6.58;-12.84;-14.42;61.16;-152.45;190.01;0
-3.95;-13.85;-14.65;24.77;-117.62;234.03;0
-0.84;-16.69;-14.53;-5.42;-74.65;244.56;0
2.92;-19.67;-13.84;-32.57;-16.34;220.45;0
7.18;-19.67;-11.86;-42.22;53.1;175.35;0
10.16;-18.81;-8.56;-36.19;106.8;149.9;0
9.57;-13.48;-2.87;-27.76;114.92;147.12;0
6.24;-11.19;-2.6;22.94;40.52;146.25;0
5.43;-10.27;-8.76;54.23;55.27;137.93;0
3.91;-6.89;-9.77;60.06;41.68;114.26;0
4.98;-4.98;-10.76;57.39;-3.26;75.97;0
3.79;-5.19;-11.48;45.45;-38.44;45.59;0
1.42;-6.04;-12.53;25.56;-63.28;39.76;0
-0.84;-6.12;-12.68;4.02;-80.6;47.55;0
-1.86;-6.61;-12.46;-13.19;-83.84;58.28;0
-2.13;-7.13;-12.16;-26.03;-74.08;69.14;0
-1.29;-7.58;-11.89;-34.61;-62.3;79.02;0
-0.4;-7.52;-11.02;-37.63;-64.58;85.53;0
1.28;-6.86;-9.99;-31.15;-78.38;80.41;0
3.67;-6.17;-8.93;-10.46;-94.13;60.38;0
4.81;-5.92;-8.89;11.45;-99.48;38.03;0
5.01;-5.63;-9.62;25.23;-98.84;19.58;0
4.86;-5.05;-10.14;30.52;-91.41;4.71;0
4.81;-4.63;-10.45;29.26;-78.09;-8.1;0
4.4;-4.38;-10.04;22.13;-74.66;-22.51;0
3.5;-4.78;-9.55;5.29;-101.33;-40.42;0
2.02;-5.87;-8.71;-21.05;-149.04;-63.01;0
-0.08;-8.29;-7.03;-48.95;-216.15;-89.13;0
-5.34;-11.48;-3.71;-56.52;-225.77;-113.58;0
-11.8;-15.35;-3.45;-43.49;-112.51;-122.78;0
-15.29;-16.78;-4.8;-33.69;31.78;-98.32;0
-13.15;-14.79;-4.41;-39.82;117.35;-41.09;0
-11.26;-11.89;-3.82;-53.52;121.54;6.68;0
-8.65;-9.85;-2.81;-56.84;103.49;8.64;0
-9.44;-9.17;-2.35;-48.19;78.37;14.93;0
-9.11;-7.22;-5.11;-32.29;58.95;23.19;0
-5.79;-6.04;-7.47;8.2;54.42;32.47;0
-1.89;-4.86;-9.87;45.3;61.62;38.56;0
1.15;-4.7;-9.95;38.42;34.09;40.8;0
3.05;-9.71;-11.49;-12.82;-80.18;26.77;0
4.72;-19.67;-15.04;-87.4;-190.88;-41.29;0
4.57;-19.67;-17.66;-142.06;-214.52;-145.1;0
2.02;-19.67;-14.8;-136.68;-107.03;-147.57;0
-1.93;-9.64;-8.23;-81.65;43.24;-40.06;0
0.81;-0.72;-7.43;-6.61;68.4;84.37;0
5.27;-0.86;-10.08;66.01;58.43;150.28;0
8.95;-4.18;-11.76;112.18;83.07;127.19;0
9.17;-5.19;-14.81;92.94;76.6;49.16;0
9.05;-4.13;-17.39;38.6;52.44;-31.36;0
8.07;-7.09;-18.56;-33.38;14.54;-94.42;0
4.14;-11.58;-17;-108.71;-19.6;-123.3;0
0.75;-12.01;-13.57;-167.66;-13.46;-124.02;0
-1.56;-11.83;-10.78;-206.92;37.17;-117.3;0
-3.5;-12.42;-7.03;-203.67;107.82;-100.76;0
-4.77;-11.78;-4.77;-137.61;125.98;-75.52;0
-4.16;-10.24;-6.09;-44.29;127.26;-55.52;0
-3.54;-9.89;-8.25;26.51;117.2;-39.69;0
-3.36;-8.12;-10.58;59.1;103.69;-22.15;0
-1.78;-6.95;-13.33;58;97.63;-13.92;0
-0.07;-6.69;-15.21;40.84;108.89;-20.26;0
0.77;-6.6;-15.77;11.53;107.59;-34.57;0
0.86;-7.38;-15.68;-23.37;87.17;-52.95;0
0.28;-8.86;-14.71;-55.63;58.35;-69.94;0
-0.48;-10.2;-13.36;-79.26;28.65;-81.46;0
-0.97;-11.26;-11.96;-93.43;6.77;-85.87;0
-1.23;-11.92;-10.89;-101.51;4.65;-85.39;0
-1.55;-12.04;-9.98;-98.18;22.17;-80.2;0
-1.56;-11.86;-9.24;-83.58;33.98;-74.01;0
-1.12;-11.61;-8.21;-61.8;28;-74.1;0
-0.95;-11.58;-7.61;-37.48;15.3;-80.91;0
-1.15;-11.4;-8.67;-16.39;9.85;-89.34;0
-0.96;-11.28;-9.69;-10.43;17.74;-92.68;0
-1.01;-10.7;-9.2;-21.79;37.85;-89.93;0
-1.63;-9.94;-8.65;-30.5;63.01;-87.27;0
-2.66;-9.87;-8.13;-24.61;104.5;-83.42;0
-5.57;-11.62;-9.46;7.92;148.65;-79.15;0
-8.63;-12.14;-9.9;40.14;97.91;-74.83;0
-10.43;-11.65;-10.47;44.23;54.65;-68.68;0
-12.3;-9.96;-10.43;35.4;67.2;-53.52;0
-11.61;-7.4;-9.88;34.62;73.56;-16.49;0
-7.28;-7.18;-9.61;45.6;84.32;17.76;0
-4.17;-8.94;-9.98;59.29;81.34;47.3;0
-2.61;-11.49;-10.21;69.25;75.11;45.81;0
-4;-13.78;-10.56;78.7;61.2;28.6;0
-6.96;-15.11;-10.85;87.46;19.22;22.55;0
-9.7;-15.62;-11.01;93.85;-52.98;34.09;0
-11.48;-15.85;-11.75;105.8;-143.96;56.28;0
-10.18;-14.15;-12.35;117.17;-181.74;80.32;0
-8.19;-12.92;-12.93;109.44;-160.7;111.49;0
-6.06;-12.73;-13.1;87.41;-139.22;153.03;0
-3.42;-13.05;-13.51;59.42;-98;188.52;0
-1.18;-13.98;-13.84;33.16;-57.72;205.97;0
1.51;-16.69;-13.86;10.46;-18.97;205.85;0
5.11;-19.67;-12.91;-7.48;27.8;184.07;0
7.45;-19.67;-11.02;-20.51;57.81;163.12;0
8.92;-17.2;-8.65;-17.65;83.65;147.84;0
6.72;-14.29;-6.64;-7.59;88.83;136.54;0
4.2;-11.83;-6.27;18.27;60.98;132.75;0
4.08;-10.64;-9.25;41.26;43.89;123.02;0
3.69;-8.32;-10.26;52.54;3.34;94.86;0
3;-6.8;-10.81;49.73;-65.6;69.46;0
2.09;-7.25;-12.09;36.74;-107.06;60.67;0
0.42;-7.08;-12.33;22.25;-108.89;64.87;0
-0.56;-6.99;-12.02;9.64;-97.96;76.98;0
-0.81;-7.25;-11.91;-0.97;-84.27;88.78;0
-0.29;-7.38;-11.48;-8.84;-67.94;98.87;0
0.85;-7.14;-10.68;-12.93;-63.14;104.74;0
2.79;-6.47;-9.91;-9.74;-70.1;97.61;0
4.53;-5.81;-9.5;3.43;-74.28;80.13;0
5.14;-5.26;-9.29;18.46;-81.27;57.35;0
5.08;-4.63;-9.97;27.91;-80.45;38.67;0
4.65;-4.04;-10.6;29.16;-68.68;22.28;0
4.47;-3.44;-10.69;25.02;-57.17;6.34;0
4.15;-3.77;-9.69;18.49;-59.24;-10.75;0
3.13;-5.11;-7.8;8.55;-97.44;-37.83;0
1.43;-6.8;-6.15;-7.38;-153.78;-65.58;0
-0.18;-9.37;-4.11;-17.63;-209.96;-87.38;0
-3.94;-12.68;-3.29;-8.22;-207.78;-119.78;0
-9.57;-14.88;-7.19;0.42;-111.72;-136.53;0
-13.62;-15.97;-12.25;-16.13;67.34;-112.46;0
-15.1;-13.79;-11.3;-61.25;201.57;-60.61;0
-14.83;-10.54;-7.91;-118.34;211.2;-9.27;0
-12.07;-9.46;-3.13;-142.17;144.09;-5.42;0
-12.33;-9.24;-0.83;-99.48;62.65;-6.16;0
-10.46;-7.92;-4.42;-35.06;-6.86;-2.39;0
-6.81;-7.51;-9.34;42.92;-53.35;19.9;0
-1.17;-7.33;-10.76;88.22;-108.73;54.01;0
4.1;-14.48;-11.44;42.45;-149.49;64.48;0
9.16;-19.67;-14.24;-46.72;-192.6;33.9;0
8.87;-19.67;-18.39;-80.96;-124.7;-26.18;0
3.94;-12.28;-12.53;-62.32;-8.48;-31.91;0
4.43;-4.03;-8.96;-29.88;34.54;27.21;0
7.82;-1.04;-11.02;9.64;68.08;67.42;0
10.5;-2.01;-12.24;17.15;83.6;68.69;0
11.02;-5.08;-14;12.32;104.86;31.2;0
10.01;-8.36;-15.85;7.39;114.02;-54.16;0
7.55;-10.62;-16.03;-18.14;63.28;-119.71;0
3.74;-12.35;-15.88;-62.38;-15.64;-150.43;0
-1.01;-13.03;-14.93;-106.68;-43.57;-154.32;0
-6.09;-12.39;-13.1;-135.69;14.41;-134.27;0
-6.85;-11.06;-11.23;-137.87;82.21;-99.07;0
-5.93;-9.62;-9.59;-123.19;97.66;-64.49;0
-3.86;-9.29;-8.95;-91.34;88.02;-43.54;0
-1.38;-9.05;-9.04;-49.5;89.72;-33.14;0
0.69;-8.49;-10.69;-14.93;103.6;-30.22;0
2.15;-8;-12.79;0.14;118.33;-33.73;0
2.44;-8.07;-14.11;-2.55;120.31;-40.03;0
2.3;-8.09;-14.67;-15.06;105.56;-53.89;0
2.02;-8.48;-14.3;-31.31;83.69;-76.94;0
0.86;-9.17;-13.22;-49.64;60.91;-96.55;0
-0.63;-10.14;-12.39;-68.15;39.4;-105.04;0
-2.09;-11.22;-11.6;-82.42;30.85;-101.36;0
-3.04;-11.74;-10.5;-90.23;44.72;-92.08;0
-3.55;-11.64;-8.84;-82.55;59.47;-79.96;0
-3.52;-11.94;-7.82;-47.4;31.53;-70.59;0
-2.56;-11.82;-9.93;-7.93;-5.44;-71.78;0
-1.57;-10.86;-11.17;-2.06;-4.53;-74.95;0
-0.19;-10.3;-9.85;-31.45;28.65;-77.74;0
0.22;-9.85;-7.15;-59.32;77.92;-78.91;0
-0.79;-10.79;-4.72;-37.54;121.14;-75.37;0
-3.38;-12.62;-8.23;33.04;173.1;-72.69;0
-6.62;-12.92;-10.77;71.68;147.04;-68.07;0
-10.14;-12.75;-11.08;69;96.63;-70.21;0
-13.93;-12.03;-10.7;51.15;80.97;-70.71;0
-15.51;-9.36;-10.52;41.49;96.19;-36.82;0
-10.2;-6.49;-9.42;46.77;98.99;9.93;0
-7.67;-7.76;-9.25;55.99;78.66;60.19;0
-4.89;-11.06;-9.73;66.07;60.8;76.13;0
-3.97;-14.37;-10.38;72.5;38.44;60.43;0
-5.49;-16.72;-10.96;78.09;7.3;37.99;0
-8.34;-16.83;-10.69;88.78;-49.02;35.27;0
-10.43;-16.2;-10.97;104.53;-136.9;54.39;0
-9.03;-14.11;-11.39;117.23;-181.81;80.47;0
-6.92;-12.56;-12.14;115.73;-159.38;113.04;0
-5.08;-12.58;-12.54;100.07;-132.25;154.48;0
-2.59;-12.95;-12.93;77.94;-102.03;186.19;0
-0.51;-13.96;-13.34;51.75;-69.1;202.22;0
1.47;-16.57;-13.25;26.03;-36.53;201.25;0
4.47;-19.67;-12.96;3.19;3.93;183.97;0
6.97;-19.67;-11.82;-11.17;55.04;163.6;0
8.11;-16.86;-9.57;-11.32;111.27;147.26;0
7.54;-13.54;-6.88;-3.6;126.69;134.95;0
5.2;-11.11;-6.02;17.91;87.43;134.09;0
4.36;-10.1;-9.42;38.63;49.71;127.68;0
3.95;-7.97;-10.4;48.32;14.11;102.26;0
3.42;-6.65;-10.94;46.49;-39.76;79.26;0
2.28;-6.77;-11.89;33.97;-79.71;68.58;0
1.06;-6.78;-12.47;17.5;-88.67;67.17;0
-0.08;-6.55;-12.43;2.64;-84.28;72.21;0
-0.47;-6.82;-12.33;-9.49;-73.36;81.64;0
-0.55;-6.89;-12.02;-19.16;-63.86;90.91;0
0.55;-6.87;-11.35;-25.33;-64.9;96.74;0
2.17;-6.14;-10.5;-24.57;-68.8;92.34;0
4.05;-5.35;-9.62;-14.87;-85.06;74.4;0
4.99;-4.91;-9.3;-0.15;-98.12;51.72;0
5.23;-4.72;-9.65;12.75;-98.93;28.57;0
5;-4.45;-10.33;20.19;-93.47;8.62;0
5.01;-4.02;-10.33;23.99;-73.82;-5.23;0
5.14;-4.35;-9.51;23.88;-66.42;-19.5;0
5.1;-5.47;-8;15.99;-92.41;-39.59;0
3.32;-7.26;-5.93;-4.56;-155.22;-64.13;0
0.45;-9.61;-3.73;-24.59;-234.14;-91.01;0
-5.72;-12.14;-2.19;-11.77;-246.18;-121.48;0
-12.49;-15.66;-7.61;4.16;-156.1;-140.16;0
-16.2;-17.62;-10.61;-18.11;14.49;-109.99;0
-14.24;-14.65;-9.44;-63.31;166.37;-41.05;0
-11.72;-11.13;-6.03;-106.36;208.72;6.33;0
-11.33;-9.79;0.25;-116.22;162.34;16.85;0
-11.85;-9.51;1.25;-79.63;86.45;24.21;0
-9.93;-8.09;-3.29;-28.87;32.81;34.24;0
-4.94;-6.88;-8.73;28.88;15.06;38.93;0
-0.87;-5.39;-10.66;74.62;-13.44;50.02;0
3.36;-7.92;-10.94;73.67;-83.52;50.74;0
6.12;-17.09;-14.71;19.13;-205.31;26.44;0
8.02;-19.67;-18.65;-61.19;-242.91;-27.45;0
4.86;-19.67;-16.74;-122.47;-182.55;-77.78;0
1.48;-16.01;-11.29;-131.59;-8.06;-76.17;0
1.39;-7.18;-6.2;-93.63;74.2;0.44;0
4.58;-2.12;-6.51;-20.51;49.18;84;0
10.28;-3.32;-8.28;54.45;35.78;98.86;0
12.54;-4.65;-12.5;78.92;88.69;52.06;0
11.19;-5.75;-16.63;58.14;104.69;-19.83;0
8.54;-6.61;-19.69;12.62;75.43;-83.78;0
5.07;-10.09;-20.59;-55.21;10.61;-134.18;0
-0.16;-12.79;-18.41;-126.44;-31.23;-149.36;0
-5.72;-12.23;-14.24;-183.15;-16.93;-128.97;0
-6.59;-12.3;-10.47;-212.45;52.99;-111.51;0
-6.47;-12.69;-6.62;-196.75;85.53;-79.52;0
-5.47;-11.08;-4.53;-127.76;88.36;-39.13;0
-1.7;-9.78;-5.7;-41.79;87.4;-22.14;0
0.13;-9.16;-7.62;26.79;87.91;-15.13;0
1.45;-7.93;-10.89;51.52;83.94;-16.07;0
2.39;-7.35;-14.04;47.24;93.25;-24.11;0
2;-7.41;-15.89;24.62;102.88;-36.95;0
1.26;-8.18;-16.4;-6.93;99.01;-55.5;0
-0.03;-8.58;-15.37;-41.86;74.31;-73.17;0
-1.15;-8.9;-14.02;-71.45;49.77;-81.7;0
-1.65;-9.74;-12.36;-89.05;39.49;-82.07;0
-1.78;-10.54;-10.62;-101.79;39.57;-76.07;0
-1.26;-11.25;-9.31;-108.84;53.77;-64.66;0
-1.09;-11.86;-7.26;-90;62.5;-56.45;0
-0.51;-12.11;-7.76;-35.7;39.08;-58.79;0
-0.33;-11.77;-10.3;4.81;22.51;-71.62;0
-0.54;-10.93;-11.43;6.5;14.02;-80.77;0
-0.62;-9.63;-11.54;-11.71;8.47;-84.6;0
-0.62;-9.07;-10.87;-39;31.46;-85.81;0
-1.09;-9.73;-9.32;-66.95;66.84;-81.36;0
-1.44;-11.32;-7.35;-61.24;84.2;-73.49;0
-2.61;-12.9;-7.08;-11.95;112.71;-69.21;0
-6.02;-12.31;-10.43;39;116.33;-77.39;0
-8.26;-11.08;-11.91;48.35;68.85;-81.07;0
-10.93;-9.99;-12.5;27.12;41.11;-73.13;0
-12.2;-9.77;-12.39;5.43;51.69;-43.81;0
-10.64;-9.61;-10.61;1.49;74.16;2.22;0
-6.2;-10.72;-7.56;15.06;95.18;30.19;0
-3.45;-12.69;-5.85;45.47;84.04;39.81;0
-3.9;-13.98;-8.09;89.71;69.24;29.87;0
-6.59;-13.5;-10.03;112.41;61.75;22.82;0
-8.31;-13.29;-10.39;117.45;34.58;29.45;0
-9.79;-13.58;-10.44;109.62;3.3;50.69;0
-9.98;-13.01;-10.35;103.15;-52.17;77.65;0
-8.19;-13.16;-11.26;104.94;-115.51;104.62;0
-5.94;-13.39;-12.71;102.21;-136.42;130.26;0
-4.32;-14.09;-13.45;88.2;-124.9;155.61;0
-3.01;-14.5;-13.53;69.16;-89.06;175.53;0
-0.99;-14.35;-13.28;47.26;-46.63;186.97;0
1.23;-15.91;-12.65;30.95;-15.65;187.67;0
3.68;-19.04;-11.72;17.42;0.85;176.97;0
5.78;-19.62;-10.74;6.97;15.18;165.4;0
6.85;-17.99;-9.28;5.77;46.61;152.58;0
6.02;-15.32;-7.65;15.87;57.37;136.18;0
4.92;-12.51;-7.4;36.31;46.84;125.38;0
4.34;-10.45;-9.29;52.47;27.63;115.81;0
3.94;-8.31;-10.03;61.78;-9.68;98;0
3.59;-6.99;-10.41;59.79;-60.17;81.23;0
2.94;-7.16;-11.24;49.24;-90.7;68.62;0
1.34;-7.18;-12.02;34.82;-106.25;66.41;0
0.08;-7.01;-11.99;19.24;-97.19;74.75;0
-0.35;-6.95;-11.62;4.46;-74.3;89.24;0
-0.28;-7.13;-10.82;-6.43;-54.31;102.92;0
0.78;-7.14;-9.79;-10.05;-47.83;111.62;0
2.34;-6.56;-9.21;-3.73;-44.45;108.59;0
3.58;-5.9;-8.92;9.66;-52.04;96.91;0
4.41;-5.26;-9.09;25.62;-60.22;78.51;0
4.49;-4.94;-9.55;37.1;-64.88;56.29;0
4;-4.59;-9.71;41.35;-67.03;35.99;0
3.51;-4.2;-10.08;38.92;-72.54;18.27;0
2.59;-3.62;-10.13;31.97;-77.14;2.43;0
1.46;-3.85;-10.38;20.62;-92.35;-13.6;0
-0.02;-4.51;-10.66;2.94;-114.62;-31.42;0
-1.6;-5.78;-10.06;-23.38;-140.18;-47.27;0
-2.93;-8.26;-9;-55.72;-147.45;-64.03;0
-3.56;-11.49;-7.65;-78.77;-118.96;-83.27;0
-5.93;-14.66;-4.82;-83.8;-37.55;-95.19;0
-10.01;-16.32;-4.08;-76.27;66.12;-91.53;0
-14.22;-16.11;-3.36;-64.65;135.35;-65.23;0
-16.69;-15.07;-1.44;-53.9;124.95;-23.13;0
-16.53;-11.66;-0.01;-31.74;69.56;20.19;0
-11.67;-8.34;-2.35;-6.55;23.54;27.48;0
-7.21;-6.39;-5.64;22.14;12.54;39.96;0
-3.04;-4.98;-9.19;55.52;14.2;43.35;0
0.64;-3.07;-11.36;63.59;3.65;37.12;0
3.62;-4.63;-13.13;38.84;-43.38;27.97;0
6.67;-10.39;-14.93;-10.35;-117.28;6.13;0
8.27;-19.67;-15.49;-84.77;-183.96;-44.42;0
7.6;-19.67;-13.39;-181.77;-221.83;-103.99;0
0.79;-19.67;-11.69;-219.77;-131.41;-142.35;0
-9.04;-19.67;-8.82;-156.89;103.56;-119.13;0
-7.4;-7.81;-3.68;-53.55;180.77;20.18;0
0.21;0.24;-2.33;41.05;99.86;164.96;0
9.32;-2.4;-6.35;144.52;51.31;201.92;0
12.65;-6.41;-12.58;189.94;86.85;149.88;0
12.14;-3.55;-18.69;147.33;118.37;49.97;0
11.58;-1.33;-21.96;62.63;55.27;-44.74;0
9.86;-7.55;-23.23;-49.96;-23.91;-142.69;0
2.27;-14.18;-20.22;-155.61;-77.22;-179.03;0
-3.82;-15.8;-15.06;-224.92;-90.2;-158;0
-7.89;-16.39;-10.97;-249.67;-7.93;-130.67;0
-8.2;-14.93;-5.61;-249.67;98.88;-84.39;0
-6.81;-11.5;-2.11;-193.99;109.02;-58.81;0
-4.93;-8.89;-0.64;-50.98;92.51;-11.97;0
-0.9;-8.31;-6.19;54.81;89.97;10.55;0
0.7;-7.9;-10.87;87.71;72.78;10.96;0
1.4;-7.27;-14.31;81.16;59.94;-2.35;0
2.71;-6.42;-16.12;59.45;76.83;-20.35;0
2.78;-6.57;-16.04;14.68;70.46;-45.56;0
2.76;-8.05;-16.29;-48.63;44.06;-73.4;0
2.22;-9.44;-16.42;-105.13;38.98;-93.85;0
2.08;-10.97;-14.87;-141.06;50.3;-106.9;0
1.89;-12.05;-12.84;-158.37;65.34;-113.51;0
0.85;-12.62;-9.05;-152.83;61.4;-111.05;0
-1.07;-14.44;-1.43;-94.89;39.14;-99.73;0
-1.45;-14.63;-3.97;1.81;48.07;-95.79;0
-2.49;-11.87;-8.59;24.36;72.44;-103.2;0
-2.12;-10.32;-11.4;8.23;53.54;-100.62;0
-2.25;-10.56;-12.56;-9.51;62.4;-102.02;0
-3.59;-11.44;-12.3;-20.65;102.14;-98.27;0
-5.57;-12;-10.93;-15.39;124.24;-87.86;0
-8.39;-11.78;-9.54;-2.72;131;-74.03;0
-10.97;-11.94;-10.61;29.63;101.18;-63.62;0
-12.39;-11.36;-11.68;49.14;79.66;-53.1;0
-12.13;-9.57;-11.32;31.01;100.56;-21.91;0
-8.74;-7.84;-9.54;10.84;111;22.26;0
-1.39;-9.01;-7.58;17.97;109.94;36.05;0
-0.33;-11.28;-6.54;50.21;96.79;33.5;0
-1.38;-12.72;-7.77;89.85;97.62;11.11;0
-4.65;-12.99;-8.64;105.65;98.22;-1.06;0
-7.23;-13.3;-9;105.85;73.63;2.42;0
-9.31;-13.68;-9.6;102.12;27.37;18.67;0
-10.75;-13.34;-10.74;105.76;-50.79;43.9;0
-10.26;-12.26;-11.79;124.56;-143.38;71.54;0
-9.37;-11.68;-12.62;136.98;-181.8;93.22;0
-8.45;-12.73;-13.35;123.72;-166.3;123.21;0
-6.74;-12.91;-14.06;98.02;-134.63;162.26;0
-4.33;-13.7;-14.2;63.1;-94.73;201.32;0
-1.53;-15.52;-14.4;26.75;-50.48;221.35;0
1.93;-18.79;-14.58;-5.96;5.91;210.51;0
5.17;-19.67;-12.97;-33.13;62.54;181;0
7.59;-17.21;-10.58;-52.71;112.51;161.13;0
7.98;-14.27;-6.03;-59.09;125.18;147.58;0
5.32;-12.07;0.13;2.12;36.11;137.61;0
5.05;-11.65;-8.43;60.08;31.55;126.02;0
3.88;-7.89;-9.51;75.56;18.38;100.72;0
3.26;-6.26;-10.23;69.74;-27.9;77.1;0
2.98;-6.4;-11.08;54.19;-72.36;54.32;0
0.98;-6.95;-12.08;34.58;-98.77;45.09;0
-1.07;-7.6;-12.45;14.1;-102.84;50.92;0
-3.02;-8.22;-12.08;-4.22;-98.19;67.95;0
-3.08;-8.65;-11.31;-18.87;-77.65;86.42;0
-2.18;-8.86;-10.21;-28.67;-60.53;102.48;0
0.47;-8.16;-8.88;-25.17;-52.56;112.55;0
2.27;-6.98;-8.54;-7.97;-61.06;105.97;0
3.97;-5.34;-8.64;16.46;-77.5;84.96;0
4.79;-4.61;-9.1;35.3;-80.51;58.48;0
4.26;-3.94;-9.77;40.58;-85.57;33.71;0
3.51;-3.38;-10.14;35.04;-94.31;14.33;0
3.05;-3.25;-10.3;24.28;-107.59;-2.03;0
2.13;-3.45;-10.15;11.07;-121.38;-17.29;0
0.92;-3.95;-10.52;-4.87;-131.68;-28.47;0
-0.67;-5.26;-10.68;-25.7;-146.22;-35.54;0
-1.98;-7.27;-10.46;-50.6;-157.86;-43.52;0
-1.65;-10.31;-8.52;-70.93;-143.35;-54.63;0
-2.39;-14.1;-4.81;-78.7;-77.96;-61.71;0
-6.07;-17.09;-1.52;-71.99;26.4;-66.77;0
-10.6;-17.25;-2.93;-53.55;119.89;-61.43;0
-13.95;-15.65;-3.09;-30.23;140.26;-42.29;0
-15.3;-12.66;-1.15;-17.42;98.16;-12.26;0
-12.97;-9.53;-0.55;-15.65;59.07;15.96;0
-9.46;-7.96;-3.19;-4.84;59.33;40.66;0
-4.34;-6.71;-6.35;22.88;72.79;41.97;0
-1.54;-4.88;-8.51;51.28;61.06;29.77;0
0.7;-3.85;-10.09;57.29;8.02;12.38;0
2.24;-5.75;-13.12;28.49;-92.82;-7.71;0
4.13;-12.84;-16.2;-18.33;-184.98;-47.79;0
5.16;-19.67;-17.44;-97.06;-229.64;-92.67;0
6.44;-19.67;-17.32;-181.53;-220.93;-128.55;0
4.64;-19.67;-14.21;-217.54;-66.17;-117.95;0
-0.21;-14.92;-8.92;-157.13;56.43;-31.5;0
0.87;-2.74;-7.34;-56.5;67.4;54.38;0
5.42;-2.15;-6.86;50.13;64.87;100;0
8.92;-5.3;-9.05;110.07;80.17;88.45;0
9.34;-5.34;-13.17;103.2;74.98;32.24;0
9.09;-2.84;-17.85;54.06;70.11;-32.16;0
8.06;-5.52;-20.43;-21.42;57.93;-89.85;0
5.07;-9.14;-19.06;-106.61;44.46;-123.16;0
1.48;-10.43;-15.47;-174.29;29.43;-129.89;0
-1.09;-11.69;-11.99;-209.16;46.11;-128.17;0
-3.11;-13;-8.38;-199.85;92.37;-116.26;0
-5;-13.18;-6.6;-140.97;112.63;-91.02;0
-4.61;-11.29;-6.62;-45.94;109.15;-71.07;0
-4.11;-9.32;-8.82;27.2;87.98;-52.64;0
-3.04;-7.44;-12.68;47.02;54.88;-42.47;0
-1.45;-6.79;-15.61;32.23;46.57;-35.29;0
0.67;-6.49;-16.65;0.16;67.07;-41.93;0
1.2;-7.65;-15.92;-50.38;73.78;-58.68;0
1.04;-8.33;-14.55;-108.77;59.6;-74.99;0
-0.14;-8.2;-12.14;-151.77;49.78;-89.39;0
-2.37;-9.81;-6.36;-153.67;57.04;-89.2;0
-5.01;-13.15;-1.87;-74.67;43.1;-75.74;0
-5.33;-12.64;-7.11;18.72;51.68;-66.52;0
-4.27;-10.82;-11.8;32.7;54.35;-57.92;0
-2.35;-9.55;-13.77;9.45;51.26;-50.19;0
-0.24;-10.05;-14.32;-16.84;59.84;-49.38;0
0.68;-9.61;-13.78;-42.89;61.11;-49.33;0
1.46;-10.29;-12.17;-64.56;49.69;-57.46;0
0.59;-11.56;-8.49;-69.78;43.38;-69.17;0
-1.84;-12.74;-5.5;-36.09;49.56;-73.37;0
-3.89;-12.07;-7.91;15.25;71.22;-73.74;0
-5.37;-11.27;-11.23;36.68;68.67;-71.7;0
-6.56;-11.63;-12.54;35.27;36.97;-68.07;0
-8;-11.52;-12.99;19.58;15.26;-57.97;0
-8.62;-10.67;-12.67;1.16;12.69;-38.84;0
-7.83;-9.57;-10.68;-8.16;27.39;-7.98;0
-5.01;-10.11;-7.18;2.34;50.34;23.29;0
-2.25;-12.13;-5.54;44.46;56.53;31.97;0
-1.45;-13.48;-7.8;80.39;72.71;23.72;0
-3.01;-13.85;-10.2;98.79;56.86;15.52;0
-5.07;-13.02;-11.11;108.75;43.64;15.31;0
-6.61;-12.34;-10.73;111.23;36.01;23.94;0
-7.52;-12.43;-10.29;105.65;22.13;42.7;0
-7.61;-11.99;-10.79;102.52;-31.37;70.42;0
-6;-11.69;-11.32;105.4;-86.27;98.93;0
-3.92;-11.88;-11.89;95.07;-84.15;123.33;0
-3.43;-12.83;-12.69;80.51;-84.07;144.38;0
-2.79;-13.33;-13.12;70.42;-93.85;155.89;0
-1;-13.6;-13;61.71;-82.11;161.68;0
0.86;-14.72;-12.55;46.75;-59.41;163.09;0
3.18;-16.98;-12.08;24.96;-35.24;157.46;0
4.64;-17.73;-11.76;4.42;-7.89;147.07;0
5.68;-16.69;-11.62;-5.26;43.29;134.53;0
5.54;-14.08;-10.2;-8.7;82.86;124.76;0
4.81;-10.82;-8.67;-9.29;75.56;119.85;0
3.92;-8.94;-7.87;-1.9;15.85;114.88;0
3.7;-9.21;-8.84;18.42;-39.86;98.3;0
4.03;-9.5;-9.82;31.69;-52.31;77.27;0
3.16;-8.94;-10.46;34.69;-58.65;65.33;0
1.86;-7.87;-11.11;30.45;-63.21;68.26;0
0.64;-7.22;-11.15;21.58;-64.09;80.04;0
0.32;-6.44;-10.54;12.91;-49.72;91.23;0
0.99;-6.23;-9.48;9.03;-50.13;97.51;0
2.04;-6.19;-8.68;11.23;-58.99;95.77;0
3.2;-5.86;-8.9;17.78;-61.64;81.84;0
3.57;-5.72;-9.39;24.78;-61.02;66.44;0
3.61;-5.83;-9.93;27.75;-55.4;52.21;0
3.32;-5.84;-10.26;25.93;-48.08;40.61;0
3.01;-5.74;-10.36;23.35;-40.97;31.44;0
2.58;-5.63;-10.62;22.31;-39.59;20.21;0
1.52;-5.88;-11.04;20.94;-46.45;5.95;0
0.09;-6.57;-11.45;16.29;-56.61;-8.32;0
-1.02;-7.72;-11.57;6.35;-67.38;-25.88;0
-2.45;-9.26;-11.19;-8.26;-82.09;-38.68;0
-3.78;-11.34;-10.78;-34.9;-95.82;-44.07;0
-6.54;-12.88;-9.67;-63.25;-64.69;-38.13;0
-8.82;-13.43;-6.92;-72.66;25.87;-30.23;0
-10.02;-13.52;-3.73;-67.8;93.68;-26.77;0
-10.27;-12.88;-1.92;-53.92;107.75;-17.79;0
-10.2;-11.53;-0.9;-32.2;90.17;-3.85;0
-10.23;-9.64;-0.66;0.29;44.43;12.54;0
-6.77;-7.89;-2.86;26.68;3.83;10.71;0
-5.55;-7.31;-5.99;49.01;-8.81;-3.06;0
-4.43;-5.88;-9.44;69.36;-10.41;-7.13;0
-3.55;-4.43;-13.16;75.31;-36.7;-4.96;0
-2.1;-2.41;-15.26;48.05;-92.51;-3.93;0
0.2;-3.56;-16.87;-8.42;-155.13;-5.23;0
3.08;-9.45;-18.84;-70.14;-197.57;-10.92;0
5.83;-19.07;-18.26;-133.35;-184.05;-27.49;0
8.46;-19.67;-14.56;-211.11;-83.1;-68.12;0
5.91;-19.67;-9.16;-227.48;59.72;-70.81;0
1.68;-16.51;-2.38;-146.03;137.94;-15.6;0
2.58;-5.48;-1.41;-0.32;116.89;55.72;0
7.06;-5.07;-5.2;125.69;70.43;82.34;0
10.19;-5.88;-10.84;167.81;23.68;62.13;0
10.22;-3.61;-15.57;139.29;7.52;9.98;0
9.63;-0.72;-19.45;69.45;37.43;-71.05;0
8.2;-5.02;-22.66;-13.51;35.43;-143.58;0
3.81;-10.64;-23.02;-105.2;-0.66;-173.73;0
-1.61;-12.22;-20.54;-182.01;-15.92;-166.81;0
-6.08;-13.09;-15.36;-230.32;23.3;-147.55;0
-9.96;-14.49;-8.69;-232.33;70.17;-115.77;0
-9.87;-13.99;-4.91;-197.13;77.46;-77.97;0
-5.75;-11.65;-3.22;-120.34;74.07;-55.34;0
-2.49;-9.68;-3.59;-31.07;64.5;-22.49;0
1.65;-8.63;-6.62;30.16;68.33;-5.18;0
3.66;-7.63;-10.93;51.08;85.32;-0.36;0
5.09;-7.22;-15.42;40.3;104.83;-19.4;0
4.61;-5.89;-16.97;6.29;105.69;-49.05;0
2.91;-6.63;-17.18;-38.82;77.65;-88.41;0
0.04;-8.17;-15.85;-79.44;36.47;-120.46;0
-2.72;-9.85;-14.22;-105.35;4.64;-129.94;0
-4.17;-11.65;-12.52;-121.68;-11.23;-115.59;0
-4.75;-12.27;-9.9;-125.1;14.17;-91.26;0
-3.85;-12.76;-6.05;-91.87;37.78;-71.58;0
-2.46;-12.03;-4.84;-30.87;33.18;-59.14;0
-0.23;-11.67;-8.77;-0.6;36.43;-58.04;0
0.92;-10.94;-11.7;-5.66;50.2;-64.74;0
0.8;-10.47;-12.16;-22.18;66.26;-73.91;0
-0.93;-10.91;-10.75;-31.74;67.5;-79.23;0
-2.66;-11.3;-9.78;-25.19;71.93;-76.77;0
-4.03;-11.31;-10.73;2.29;76.27;-70.3;0
-4.91;-10.7;-12.13;22.36;62.24;-64.53;0
-4.82;-10.19;-12.71;14.66;46.54;-53.82;0
-3.62;-9.64;-12.31;-7.33;54.2;-37.47;0
-1.59;-9.96;-11.11;-11.48;55.23;-20.49;0
0.67;-10.73;-10.02;8.02;65.03;-12.03;0
1.57;-11.33;-10.01;30.39;78.46;-14.1;0
0.87;-11.32;-10.85;44.6;90.68;-19.38;0
-1.35;-11.59;-11.88;55.03;88.87;-22.07;0
-4.87;-12.71;-12.58;67.02;66.81;-26.11;0
-7.94;-13.36;-12.82;77.23;25.78;-25.22;0
-10.56;-13.13;-12.44;79.28;-1.53;-11.08;0
-11.86;-11.98;-11.75;74.94;-12;17.24;0
-11.05;-10.4;-10.81;69.81;-22.91;58.32;0
-7.82;-10.08;-9.5;57.28;-38.56;104.15;0
-3.53;-11.61;-9.22;42.32;-58.25;140.66;0
0.57;-14.04;-10.5;40.72;-70.71;154.9;0
2.68;-15.25;-11.44;49.13;-66.58;151.26;0
3.06;-15.14;-11.05;59.66;-54.89;143.02;0
2.04;-13.16;-10.53;67.84;-37.47;140.64;0
1.2;-12.23;-9.73;65.3;-19.41;138.97;0
1.09;-12.71;-9.33;53;-41.23;137.98;0
1.84;-14.11;-9.97;42.11;-55.83;132.51;0
2.93;-15.21;-10.72;40.05;-38.24;120.47;0
3.56;-15.03;-11.02;44.9;-3.23;108.01;0
4.1;-12.93;-10.91;49.87;33.4;104.34;0
3.84;-10.67;-10.96;51.67;47.96;107.3;0
3.44;-9.28;-11.34;52.47;21.07;106.35;0
3.67;-9;-11.91;51.87;-12.8;96.97;0
3.36;-9.19;-12.27;42.51;-29.28;89.13;0
1.94;-9.17;-12.42;25.81;-49.81;84.58;0
1.22;-8.74;-12.57;5.79;-53.23;87.57;0
0.43;-8.19;-12.09;-12.44;-36.52;93.74;0
-0.26;-7.88;-10.53;-21.55;-25.44;103.42;0
0.34;-7.63;-8.99;-16.51;-21.35;110.74;0
1.37;-7.23;-8.46;-0.33;-27.74;112.68;0
2.17;-6.64;-8.71;16.87;-39.39;104.34;0
2.28;-6.05;-9.16;27.62;-65.06;91.04;0
1.87;-5.67;-9.54;29.68;-94.51;76.45;0
1.42;-5.15;-10.27;25.37;-113.33;59.9;0
0.65;-4.74;-10.53;21.36;-109.81;45.9;0
0.12;-4.7;-10.77;20.4;-98.14;31.91;0
-0.27;-4.99;-11.51;22.07;-89.22;16.78;0
-0.62;-5.5;-11.83;20.87;-82.09;2.29;0
-1.1;-6.16;-11.66;14.48;-76.43;-10.48;0
-1.27;-6.94;-11.01;0.91;-83.92;-19.19;0
-0.98;-8.9;-9.86;-27.16;-105.02;-29.02;0
-1.56;-12.07;-7.93;-60.41;-110.06;-28.14;0
-4.61;-15.33;-4.48;-78.87;-31.89;-20.96;0
-10.03;-16.7;-0.64;-59.09;71.08;-12.69;0
-11.72;-15.78;0.06;-16.71;98.82;-5.33;0
-10.31;-12.23;-0.92;21.14;87.05;4.82;0
-8.4;-8.07;-3.43;52.19;81.91;20.72;0
-7.17;-5.61;-6.25;66.15;74.45;31.6;0
-5.21;-4.28;-10.18;48.29;64.83;25.81;0
-4.5;-3.81;-12.63;28.12;47.9;14.19;0
-2.63;-2.97;-14.89;8.58;-9.58;-2.85;0
-1.86;-1.87;-14.75;-20.48;-100.19;-19.57;0
-0.71;-2.92;-13.75;-62.47;-187.64;-31.65;0
1.79;-9.81;-14.71;-97.48;-236.42;-48.1;0
4.65;-19.67;-14.83;-139.77;-205.56;-71.16;0
7.88;-19.67;-12.75;-207.36;-77.07;-90.99;0
5.37;-19.67;-6.95;-209.4;52.95;-54.26;0
1.5;-13.64;-3.16;-96.64;113.59;31.41;0
4.59;-2.66;-2.57;46.56;106.04;90.3;0
10.84;-4.86;-7.01;135.42;51.49;99.94;0
13.54;-4.28;-12.95;146.53;22.4;70.96;0
13.03;0.07;-17.18;98.17;51.8;9.41;0
12.14;-0.6;-20.7;38.5;91.8;-87.23;0
8.79;-7.13;-22.97;-31.13;60.27;-170.2;0
2.5;-11.92;-22.33;-107.32;-1.76;-200.8;0
-4.36;-13.79;-19.09;-172;-32.86;-190.99;0
-11.34;-14.21;-14.16;-202.03;24.91;-162.52;0
-15.04;-13.63;-9.56;-197.2;70.12;-110.57;0
-12.89;-11.63;-6.91;-160.61;81.75;-68.71;0
-8.69;-9.09;-5.03;-101.31;67.52;-24.36;0
-3.68;-7.65;-4.95;-41.78;44.4;10.24;0
2.26;-8.22;-7.48;-0.38;41.32;10.22;0
5.03;-7.78;-10.95;11.84;42.17;-1.68;0
6.39;-7.56;-14.18;-0.51;51.79;-29.52;0
4.9;-6.77;-15.39;-24.38;67.5;-58.66;0
2.21;-7.93;-15.5;-55.9;77.44;-85.66;0
-0.55;-9.51;-14.1;-85.58;60.77;-103.72;0
-2.32;-11.1;-12.62;-101.35;39.85;-113.54;0
-3.89;-12.03;-10.32;-99.8;30.76;-107.74;0
-4.56;-12.26;-7.43;-72.43;32.78;-94.04;0
-4.68;-12.89;-7.46;-33.77;48.58;-79.75;0
-4.14;-12.23;-9.38;-10.96;69.89;-62.69;0
-2.71;-11.12;-11.02;-10.35;75.62;-49.31;0
-1.64;-11.25;-11.48;-16.39;75.92;-43.57;0
-0.57;-11.74;-10.82;-24.42;77.01;-42.82;0
-0.3;-12.93;-9.5;-22.78;82.43;-55.22;0
-2.15;-13.37;-9.1;-6.87;96.75;-70.16;0
-4.3;-12.69;-10.16;18.84;111.09;-69.5;0
-6.47;-11.56;-11.03;36.79;107.24;-63.94;0
-8.62;-10.87;-11.15;37.38;76.79;-56.42;0
-9.7;-10.08;-10.86;29.92;74.49;-39.74;0
-9.35;-9.07;-10;31.44;98.01;-6.79;0
-7.29;-8.2;-9.44;48.91;98.1;26.59;0
-4.75;-8.08;-9.73;67.56;85.3;40.82;0
-3.05;-8.21;-10.01;77.77;82.79;38.61;0
-2.75;-7.89;-9.13;78.1;98.07;35.45;0
-3.23;-8.75;-9;75.95;111.59;43.24;0
-4.17;-11.66;-9.62;80.5;85.61;51.9;0
-5.38;-14.05;-10.29;91.2;7.07;49.99;0
-7.02;-14.93;-11.79;110.71;-92.54;49.26;0
-9.58;-15.38;-13.19;143.42;-193.86;64.85;0
-10.81;-13.99;-12.88;155.52;-202.95;82.7;0
-9.73;-12.3;-12.61;133.39;-119.38;119.97;0
-6.84;-11.59;-12.89;111.23;-98.09;183.49;0
-4.17;-14.71;-12.87;70.71;-90.4;240.61;0
-0.53;-19.67;-14.54;33.62;-66.94;247.73;0
4.04;-19.67;-14.89;16.97;-13.73;204.77;0
7.65;-19.67;-15.33;17.82;99.78;160.15;0
8.28;-17.9;-12.79;11.07;209.43;152.1;0
7.03;-11.57;-9.8;-35.99;202.93;168.65;0
5.2;-7.81;-9.4;-60.67;54.22;169.1;0
6.83;-6.11;-9.29;-49.32;-54.61;135.4;0
3.95;-7.75;-7.45;-33.05;-53.65;108.91;0
1.13;-7.29;-7.14;-8.37;-62.17;99.33;0
0;-6.53;-8.07;9.69;-82.11;99.51;0
0.17;-6.93;-10.14;12.13;-113.6;87.93;0
-0.23;-8.04;-10.3;6.58;-141.13;80.94;0
-2.45;-9.18;-10.25;4.99;-148.33;106.13;0
-0.81;-9.48;-10.34;3.74;-128.49;122.5;0
1.96;-7.82;-9.7;10.79;-122.54;114.67;0
3.76;-6.13;-9.39;23.51;-128.42;89.43;0
4.95;-4.64;-9.51;30.25;-131.28;60.19;0
5.52;-3.5;-9.68;30.23;-134.25;30.51;0
5.01;-2.79;-10.21;22.6;-133.97;6.4;0
3.74;-2.77;-9.98;9.67;-125.62;2.69;0
4.67;-3.36;-9.95;-3.53;-120.3;-18.03;0
3.72;-4.59;-10.04;-16.04;-121.79;-32.81;0
2.68;-6.14;-8.98;-28.45;-134.11;-40.95;0
1.88;-8.57;-7.09;-36.7;-146.78;-52.23;0
1.01;-11.46;-5.08;-35.87;-141.61;-66.57;0
-1.16;-14.21;-3.06;-28.64;-106.91;-77.16;0
-5.18;-16.33;-3.18;-18.16;-36.26;-73.54;0
-10.87;-15.63;-5.77;-4.26;74.9;-52.08;0
-14.81;-14.45;-8.69;-11.54;173.56;-23.93;0
-15.28;-11.42;-7.89;-38.49;211.15;2.22;0
-14.01;-7.91;-5.8;-64.62;177.07;26.48;0
-11.59;-6.68;-5.65;-59.03;146.72;46.96;0
-7.6;-5.79;-6.69;-13.77;132.22;51.25;0
-3.69;-4.64;-7.74;39.29;99.11;39.81;0
-0.41;-2.81;-9.17;68.07;10.72;24.13;0
5.94;0.25;-11.05;59.72;-106.09;-5.58;0
7.08;-1.24;-13.02;19.78;-193.6;-24.69;0
7.29;-7.57;-15.08;-43.29;-246.18;-53;0
7.45;-19.44;-15.46;-127.32;-246.18;-110.76;0
4.73;-19.67;-17.29;-242.36;-174.43;-179.38;0
-2.2;-19.67;-13.81;-249.67;84.36;-214.45;0
-6.69;-19.67;-3.93;-157.93;254.09;-67.54;0
-4.07;-2.78;-3.28;-41.84;228.91;96.29;0
1.78;1.07;-6.89;59.82;121.48;178.04;0
7.97;-2.74;-10.62;111.64;43.11;167.97;0
11.28;-5.63;-12.89;110.61;2.45;90.66;0
11.93;-3.73;-15.46;77.58;-1.89;-11.75;0
10.64;-4.29;-18.86;19.28;2.53;-104.35;0
6.97;-11.09;-19.26;-49.81;-19.89;-153.2;0
1.37;-14.01;-16.86;-119.95;-51.97;-150.13;0
-2.85;-14.81;-11.91;-160.38;-32.99;-136.24;0
-4.45;-13.68;-10.42;-167.38;51.15;-135.5;0
-7.31;-12.49;-7.92;-129.63;111.04;-105.29;0
-7.56;-8.79;-6.48;-73.26;124.53;-56.19;0
-5.42;-7.65;-7.24;-25.99;113.75;-17.34;0
-2.29;-7.76;-9.77;-4.55;112.84;-1.42;0
0.53;-7.4;-12.17;-11.71;123.04;-10.54;0
1.42;-6.56;-12.92;-31.44;132.32;-30.97;0
1.22;-7.09;-12.68;-52.58;123.4;-49.67;0
0.88;-8.31;-11.23;-65.04;100.59;-70.75;0
0.41;-9.85;-9.89;-66.19;73.65;-94.23;0
-0.95;-11.04;-9.07;-52.51;51.1;-104.68;0
-2.44;-12.19;-9.02;-31.21;36.68;-95.83;0
-3.42;-12.58;-9.72;-17.72;32.25;-80.64;0
-3.47;-11.78;-10.8;-14.78;37.12;-75.18;0
-2.98;-10.79;-11.65;-23.08;33.38;-76.07;0
-2.78;-10.28;-11.78;-31.13;16.08;-76.02;0
-2.72;-10.13;-11.6;-39.22;-5.94;-77.61;0
-2;-10.11;-11.2;-41.09;-15.64;-79.44;0
-1;-10.48;-9.44;-47.06;17.81;-80.8;0
-1.06;-12.17;-6.32;-45.19;62.22;-79.87;0
-2.46;-13.81;-4.48;-7.6;104.55;-71.99;0
-5.1;-13.22;-8.38;43.93;109.78;-67.11;0
-6.73;-11.5;-10.01;57.4;76.51;-66.64;0
-7.94;-10.02;-10.48;46.39;65.01;-62.58;0
-8.65;-9.14;-9.91;35.64;88.4;-47.94;0
-8.38;-8.35;-8.55;35.18;111.9;-22.03;0
-7.25;-7.74;-6.87;47.49;101.4;7.26;0
-5.99;-8.07;-6.81;72.57;85.49;22.15;0
-5.64;-9.41;-8.3;95.7;79.91;29.7;0
-6.37;-11.59;-9.46;105.25;64.97;36.4;0
-7.37;-13.45;-10.43;110.18;19.36;47.51;0
-7.7;-14.27;-11.75;129.11;-55.83;63.35;0
-7.7;-15.37;-13.16;153.48;-138.5;83.96;0
-8.2;-15.69;-13.61;161.56;-161.99;105.05;0
-8.27;-14.99;-13.68;135.26;-121.99;134.51;0
-6.15;-14.33;-14.39;100.26;-89.53;171.87;0
-2.69;-15.56;-15.11;64.82;-37.83;203.11;0
1.14;-17.85;-15;22.44;30.84;210.13;0
3.66;-19.67;-13.69;-18.99;59.85;190.43;0
6.6;-19.67;-14.08;-36.25;118.5;160.83;0
8.31;-16.98;-11.86;-43.32;196.01;140.09;0
7.5;-12.64;-8.53;-68.44;162.78;140.73;0
6.36;-9.76;-7.58;-73.22;39.52;134.71;0
5.87;-8.53;-6.49;-35.94;-60.86;106.67;0
4.88;-9.21;-7.24;0.23;-65.97;83.58;0
3.82;-8.34;-8.21;14.13;-81.93;69.74;0
2.62;-7.47;-8.84;13.03;-125.12;54.51;0
1.69;-7.45;-9.68;4.73;-163.49;44.71;0
-0.18;-8.11;-9.67;-4.89;-169.96;56.74;0
-0.88;-8.14;-9.28;-10.48;-144.09;74.13;0
0.98;-7.02;-8.62;-8.13;-117.43;82.71;0
2.62;-6.34;-8.54;0;-98.25;78.91;0
4.35;-5.15;-8.68;8.08;-87.97;66.84;0
5.33;-4.24;-8.77;12.91;-70.17;50.71;0
5.16;-3.27;-8.61;15.2;-62.73;37.27;0
4.58;-2.73;-8.18;16.43;-68.69;25.84;0
3.82;-3.24;-8.79;17.9;-88.02;13.72;0
3.87;-4.68;-10.32;20.15;-107.45;-8;0
2.15;-6.31;-11.37;17.94;-120.77;-29.26;0
0.18;-8.16;-11.51;5.03;-127.78;-41.44;0
-1.58;-10.33;-10.04;-12.42;-126.17;-43.2;0
-2.98;-13.08;-8.57;-23.01;-114.6;-35.09;0
-4.84;-14.15;-5.73;-19.29;-16.97;-16.62;0
-9.51;-13.73;-4.23;-1.96;143.91;-5.05;0
-13.68;-13.12;-5.26;6.11;214.69;5.97;0
-15.64;-10.95;-4.79;-3.17;185.12;28.45;0
-14.63;-8.38;-3.71;-9.86;113.88;53.55;0
-11.26;-7.57;-4.38;-2.91;27.53;61.87;0
-7.03;-7.5;-6.1;13.94;-27.05;68.6;0
-3.96;-7.14;-8.01;19.91;-22.55;57.19;0
-2.43;-6.8;-9.73;24.55;6.66;35.76;0
-1.3;-6.05;-10.53;37.02;12.98;7.88;0
-0.73;-4.09;-12.73;41.69;-26.78;-13.95;0
-0.07;-2.4;-13.46;26.94;-99.09;-31.69;0
1.24;-2.55;-12.69;-19.16;-179.2;-39.26;0
3.74;-6.51;-13.75;-85.14;-246.18;-53.48;0
4.9;-15.08;-13.36;-151.32;-246.18;-89.17;0
4.83;-19.67;-15.11;-240.46;-169.36;-171.42;0
1.12;-19.67;-18.17;-249.67;-73.73;-224.57;0
-6.49;-19.67;-3.55;-167.44;165.91;-50.36;0
-0.36;-2.83;2.2;-28.29;250.03;133.16;0
4.76;2.53;-3.09;88.78;122.12;242.63;0
14.14;-3.41;-10.34;189.59;41.79;225.59;0
14.57;-7.1;-15.32;185.26;16.43;129.97;0
11.44;-0.13;-17.58;126.34;-5.02;19.71;0
9.42;0.81;-19.99;46.83;-4.97;-91.04;0
6.71;-9.43;-20.31;-32.94;-52.8;-185.71;0
0.7;-15.27;-16.91;-101.28;-104.34;-189.64;0
-5.28;-15.59;-15.33;-155.84;-73.95;-156.18;0
-8.48;-13.87;-12.25;-179.15;30.83;-117.26;0
-7.87;-11.86;-8.94;-176.22;99.78;-74.64;0
-5.56;-10;-6.68;-146.15;109.55;-34.82;0
-2.15;-9.86;-5.63;-90.53;107.69;-9.22;0
1.47;-9.97;-6.07;-28.88;113.45;-16.87;0
1.39;-8.87;-8.2;13.49;120.58;-10.49;0
1.51;-7.56;-11.34;23.28;128.85;-11.72;0
0.43;-6.57;-13.05;11.44;142.51;-24.61;0
-0.58;-6.68;-13.53;-11.64;135.51;-45.6;0
-1.4;-7.47;-13.22;-34.61;112.36;-66.9;0
-1.6;-8.94;-13.15;-49.8;84.84;-84.05;0
-2;-10.26;-12.63;-52.51;71.19;-85.46;0
-2.84;-11.05;-12.33;-47.12;64.34;-73.86;0
-2.82;-10.48;-12.33;-44.34;48.29;-62.55;0
-1.78;-10.11;-12.56;-48.11;24.11;-55.76;0
0.18;-10.16;-12.56;-55.85;5.49;-58.34;0
2.16;-10.11;-12.28;-68.35;2.58;-63.95;0
3.72;-10.34;-11.56;-85.28;15.92;-73.91;0
4.4;-11.3;-10.36;-94.32;25.14;-89.83;0
3.2;-12.31;-7.59;-77.59;28.96;-109.49;0
0.09;-13.14;-5.54;-40.9;37.64;-118.97;0
-2.48;-13.09;-5.61;-13.51;76.52;-113.74;0
-4.08;-11.91;-7.21;-2.29;135.31;-96.43;0
-6.04;-11.47;-10.27;23.82;162.94;-85.27;0
-8.95;-11.84;-13.21;55.1;89.81;-86.67;0
-11.1;-12.19;-14.22;47.11;13.94;-86.66;0
-13.46;-11.2;-14.27;9.96;43.43;-63.97;0
-11.31;-8.43;-12.02;-11.61;80.04;-15.1;0
-5.57;-9.14;-8.97;-9.96;83.53;32.42;0
-0.07;-11.97;-6.45;16;78.64;42.16;0
2.06;-13.49;-6.15;61.64;74.82;15.19;0
-0.36;-12.57;-9.2;95.32;75.1;-12.15;0
-4.46;-12.21;-11.07;106.37;55.45;-16.91;0
-7.37;-12.48;-11.28;107.3;31;-13.78;0
-10.18;-11.88;-10.9;108.1;9.11;-0.33;0
-10.9;-11.37;-10.27;107.58;-19.25;21.85;0
-9.78;-10.99;-10.31;106.12;-56.7;54.73;0
-7.38;-10.6;-10.7;110.21;-95.31;93.46;0
-5.21;-11.07;-11.37;107.57;-111.38;123.16;0
-3.77;-11.83;-12.67;96.01;-101.41;146.93;0
-2.77;-12.99;-13.45;77.74;-82.22;168.64;0
-0.87;-14.56;-14.06;59.99;-48.35;181.34;0
1.36;-16.58;-13.68;42.39;-13.1;172.58;0
3.76;-17.78;-12.83;21.65;11.69;156.26;0
5.46;-17.47;-12.04;0.64;28.08;143.12;0
6.39;-16.08;-11.19;-17.38;43.7;131.68;0
6.7;-13.73;-9.56;-28.03;61.02;117.3;0
5.28;-10.34;-7.77;-26.44;50.14;106.64;0
3.54;-8.95;-7.37;-6.09;5.95;99.55;0
2.78;-8.88;-8.91;20.13;-28.47;91.84;0
2.51;-8.84;-9.63;34.24;-50.55;79.97;0
2.48;-8.71;-10.25;37.71;-73.24;68.42;0
2.61;-8.36;-11.15;31.53;-94.1;57.3;0
1.41;-7.92;-11.66;14.65;-108.09;55.21;0
-0.47;-7.91;-11.63;-4.93;-96.25;71.93;0
-1.26;-7.8;-11.31;-24.44;-60.13;97.19;0
-0.24;-7.27;-9.58;-36.61;-34.7;111.61;0
1.72;-6.7;-7.4;-30.12;-39.64;109.18;0
3.36;-6.76;-6.51;-6.44;-62.2;93.93;0
3.47;-6.51;-6.67;19.23;-80.19;75.14;0
3.24;-6.06;-7.63;36.61;-97.54;56.51;0
2.54;-5.66;-8.61;43.51;-104.77;42.2;0
2.25;-5.04;-9.56;42.16;-104.64;30.55;0
1.7;-4.81;-10.14;33.27;-98.06;18.95;0
1.37;-5.03;-10.82;20.54;-89.22;7.29;0
1.13;-5.42;-11.29;6.15;-82.06;-4.84;0
0.42;-6.16;-11.04;-9.52;-71.09;-13.83;0
-0.27;-7.25;-9.73;-24.95;-56.75;-18.68;0
-0.01;-8.66;-7.06;-33.04;-53.11;-31.45;0
-1.34;-10.54;-5.11;-29.87;-50.56;-39.9;0
-4.28;-12.78;-5.66;-23.59;-25.17;-43.58;0
-9.29;-15.49;-7.05;-27.03;34.13;-35.66;0
-13.88;-16.05;-7.22;-38.74;101.31;-20.45;0
-15.86;-13.17;-6;-43.73;142.58;-3.65;0
-15.68;-9.62;-4.95;-35.48;112.99;13.32;0
-13.76;-7.85;-4.63;-22.13;59.66;35.72;0
-8.22;-7.05;-5.66;-5.93;14.53;38.31;0
-5.26;-6.35;-6.92;13.09;-9.14;35.18;0
-2.15;-4.84;-8.54;22.99;-32.41;22.36;0
0.13;-4.34;-9.28;28.65;-82.77;5.64;0
1.1;-5.52;-10.56;22.14;-158.24;-17.02;0
2.01;-9.41;-14.01;6.24;-246.18;-35.7;0
4.73;-19.41;-15.86;-41.35;-246.18;-68.07;0
8.79;-19.67;-17.59;-135.96;-152.73;-122.56;0
8.23;-19.67;-11.74;-206.04;43.09;-99.05;0
2.13;-11.69;-2.74;-142.66;176.32;38.49;0
5.86;-0.79;-4.99;21.09;160.59;128.99;0
11.92;-2.69;-7.49;148.19;133.4;149.74;0
14.47;-4.98;-12.73;177.3;74.62;110.36;0
13.28;-3.62;-17.1;135.77;37.33;23.38;0
12;-2.23;-21.03;58.78;-5.8;-103.89;0
8.12;-6.45;-23.22;-41.25;-63.22;-219.6;0
-0.36;-14.68;-22.31;-149.28;-115.98;-234.91;0
-8.81;-15.56;-18.42;-242.12;-72.91;-190.49;0
-12.07;-15.83;-11.37;-249.67;61.03;-125.31;0
-9.86;-14.03;-4.69;-244.42;108.01;-68.52;0
-4.94;-12.12;-1.86;-155.42;89.65;-36.24;0
-1.56;-9.21;-1.86;-47.69;69.85;-18.62;0
-0.35;-8.01;-4.33;29.42;52.66;-4.64;0
1.93;-7.26;-8.64;58.69;75.79;-0.82;0
4.13;-6.18;-14.16;42.06;112.04;-5.54;0
5.34;-6.05;-16.83;5.84;145.14;-31.26;0
3.69;-6.41;-16.6;-39.93;133.18;-61.74;0
1.22;-7.04;-15.1;-81.34;100.33;-92.07;0
-1.21;-8.45;-13.18;-106.13;73.52;-110.77;0
-3.18;-10.47;-11.01;-106.22;56.97;-110.1;0
-4.58;-12.71;-9.49;-90.85;48.46;-91.96;0
-4.15;-12.46;-7.5;-64.09;31.89;-77.49;0
-2.44;-10.81;-7.96;-29.97;-0.94;-73.3;0
-1.43;-10.09;-11.4;-9.91;-25.76;-69.47;0
-1.93;-10.18;-13.99;-15.52;-22.01;-65.84;0
-1.39;-10.36;-14.62;-33.58;-17.04;-65.95;0
-0.39;-10.56;-13.58;-54.04;-2.04;-67.14;0
1.17;-10.51;-10.14;-74.6;12.11;-67.73;0
2.21;-10.92;-4.73;-74.12;18.48;-68.2;0
1.61;-12.41;-3.58;-31.49;32.17;-68.6;0
0.32;-11.41;-8.02;7.27;67.72;-66.28;0
-0.58;-10.11;-12.18;14.32;101.64;-65.62;0
-2.79;-10.34;-13.76;18.94;115.99;-74.27;0
-5.22;-10.82;-13.7;18.02;62.49;-77.87;0
-7.73;-10.71;-13.29;0.58;29.04;-75.7;0
-9.85;-9.98;-11.3;-18.32;34.88;-51.53;0
-8.43;-9.17;-7.76;-6.45;54.85;-7.63;0
-3.81;-10.48;-8.13;32.45;66.11;23.65;0
-0.57;-11.14;-10.06;61.1;74.23;24.81;0
0.67;-10.84;-11.46;67.06;76.18;13.04;0
-0.22;-10.91;-12.5;71.26;58.41;0.26;0
-3.25;-12.06;-13.13;75.86;34.33;-8.82;0
-6.79;-12.84;-13.06;79.52;3.06;-11.58;0
-9.74;-12.46;-11.63;77.04;-14.06;1.28;0
-10.18;-12.06;-10.07;72.1;-31.31;33.38;0
-8.47;-11.79;-9.5;66.26;-54.54;76.61;0
-5.92;-12.37;-10.22;64.07;-85.75;118.33;0
-3.63;-13.57;-11.44;70.61;-93.77;143.2;0
-2.62;-14.25;-12.59;76.16;-84.25;156.14;0
-1.55;-14.44;-12.75;76.69;-57.77;165.99;0
0.11;-15.3;-12.5;66.05;-15.06;177.43;0
2.03;-16.11;-11.51;42.16;12.04;177.83;0
3.39;-16.64;-10.42;13.22;19.43;170.18;0
4.82;-17.81;-10.17;-4.57;30.11;154.41;0
5.71;-17.67;-10.19;-2.77;60.46;134.25;0
5.49;-15.13;-9.26;11.61;81.04;122.76;0
4.29;-12.13;-8.6;26.88;56.81;122.13;0
3.97;-10.29;-9.5;39.52;7.46;117.03;0
3.28;-9.43;-10.11;43.79;-30.07;104.68;0
2.37;-9.26;-10.56;39.19;-50.21;92.27;0
0.96;-9.01;-11;28.87;-61.85;88.22;0
-0.49;-9.05;-10.86;17.5;-68.42;95.12;0
-0.98;-9.38;-10.34;11.32;-61.15;110.58;0
-0.78;-9.16;-9.55;12.34;-53.9;126.76;0
0.68;-8.5;-8.6;20.16;-53.18;129.12;0
2.19;-8.04;-8.85;29.14;-65.93;121.31;0
3.12;-6.79;-9.7;34.39;-67.59;106.9;0
3.34;-5.68;-10.21;34.23;-69.38;90.29;0
3.69;-4.53;-10.43;29.38;-67.35;69.97;0
3.62;-3.66;-10.58;20.56;-67.45;49.41;0
3.07;-3.04;-10.1;13.65;-66.67;33.86;0
2.93;-2.76;-9.77;13.58;-63.74;20.61;0
2.35;-2.84;-10.05;14.42;-61.86;9.39;0
2.06;-2.89;-10.16;12.03;-60.89;-3.71;0
1.52;-3.63;-10.4;7.76;-58.7;-18.87;0
0.92;-4.91;-10.44;4.19;-55.06;-33.32;0
0.01;-6.24;-9.71;-5.21;-53.6;-48.64;0
-1.16;-7.66;-9.27;-20.93;-48.96;-64.81;0
-2.73;-9.17;-8.97;-36.55;-17.68;-76.06;0
-7.47;-12.31;-8.86;-47.92;28.07;-84.81;0
-14.2;-14.84;-6.01;-55.84;65.75;-87.1;0
-20.31;-16.11;-2.84;-60.6;50.31;-64.79;0
-20.31;-16.2;-0.41;-50.87;11.19;-17.23;0
-19.33;-13.44;-0.32;-14.53;-36.29;34.15;0
-10.89;-10.34;-5.24;25.36;-46.6;37.16;0
-7.33;-6.75;-8.2;57.42;-21.39;59.96;0
-2.8;-4.8;-10.51;65.17;-1.04;78.61;0
2.36;-7.47;-13.51;47.63;-13.6;81.48;0
6.27;-14.31;-16.11;17.21;-130.28;70.84;0
10.88;-19.67;-17.9;-47.92;-230.35;-25;0
8.31;-19.67;-17.21;-122.84;-178.02;-138.83;0
-3.32;-18.96;-6.09;-122.64;114.37;-83.39;0
2.33;-4.63;-3.12;-63.99;129.62;61.7;0
10.52;-0.04;-6.34;47.07;44.56;145.65;0
16.83;-4.05;-10.51;120.86;32.01;139;0
18.32;-4.06;-15.85;93.26;64.69;53.51;0
17.37;-5.53;-19.55;25.49;71.41;-96.06;0
10.81;-10.4;-18.89;-42.03;8.47;-211.47;0
4.32;-14.95;-16.69;-97.19;-69.43;-250.61;0
-5.72;-17.67;-16.03;-143.6;-84.79;-249.16;0
-14.23;-17.63;-13.17;-153.15;53.66;-163.71;0
-13.87;-11.49;-8.84;-128.72;111.89;-68.82;0
-7.44;-9.52;-8.15;-100.96;75.49;-22.11;0
-1.48;-8.96;-8.57;-77.17;52.88;-21.58;0
1.41;-7.97;-7.53;-46.89;41.91;-30.39;0
2.95;-7.33;-9.71;-28.44;40.36;-40.9;0
4.41;-6.85;-12.69;-36.76;54.76;-57.03;0
4.17;-6.82;-13.99;-57.47;85.85;-71.62;0
3.27;-7.23;-13.98;-78.4;108.16;-84.12;0
1.87;-7.58;-12.94;-89.38;109.86;-95;0
0.32;-8.55;-11.38;-87.13;81.24;-100.84;0
-1.11;-9.62;-10.64;-73.58;52.49;-100.74;0
-2.38;-10.5;-10.47;-55.51;30.65;-103.87;0
-3.04;-11.73;-10.28;-52.58;23.98;-100.64;0
-3.11;-11.97;-10.26;-67.22;18.62;-89.82;0
-3.15;-11.79;-11.04;-65.41;10.91;-80.79;0
-3.62;-12.25;-11.08;-49.19;-15.15;-77.98;0
-3.16;-11.37;-11.24;-33.6;-13.87;-83.01;0
-2.26;-10.15;-10.61;-34.83;22.91;-81.23;0
-0.63;-9.83;-8.44;-42.61;46.01;-69.97;0
1.45;-10.25;-7.62;-34.56;45.72;-62.07;0
2.27;-10.66;-9.63;-12.59;44.61;-66.6;0
1.25;-10.87;-11.35;-8.55;65.78;-76.26;0
-0.83;-11.18;-11.71;-12.82;98.66;-81.68;0
-3.91;-10.9;-10.99;4.03;126.43;-84.01;0
-6;-10.42;-10.23;12.23;107.02;-71.15;0
-7.78;-10.51;-10.52;19.26;77.34;-56.39;0
-8.78;-10.3;-9.9;24.96;70.61;-40.34;0
-7.52;-9.1;-9.52;27.11;68.7;-11.24;0
-3.26;-8.67;-10.62;41.64;64.78;5.44;0
-1.72;-9.06;-11.38;60.06;64.85;15.04;0
-1.77;-9.12;-11.73;71.59;54.33;10.02;0
-3.7;-9.47;-12.11;78.52;6.58;2.3;0
-6.22;-11.39;-12.44;77.91;-35.02;-2.52;0
-9.4;-13.41;-11.89;72.84;-55.82;8.84;0
-10.13;-14.31;-11.3;70.58;-65.79;42.31;0
-7.72;-13.89;-10.44;69.99;-64.91;83.44;0
-4.43;-13.82;-10.62;66.15;-84.41;120.19;0
0.26;-14.2;-11.98;63.33;-92.81;145.51;0
1.91;-14.3;-12.58;57.72;-69.43;161.48;0
1.94;-14.43;-12.61;53.02;-47.73;168.23;0
1.62;-13.57;-11.79;45.94;-28.19;172;0
2.2;-13.61;-10.56;32.45;-12.41;171.93;0
3.63;-15.23;-9.73;18.36;-4.21;160.85;0
4.62;-16.67;-9.54;14.21;6.09;141.89;0
5;-17.27;-9.9;22.32;24.43;122.35;0
4.53;-15.43;-9.77;31.56;43.81;109.89;0
4.04;-12.52;-9.35;29.94;50.07;106.9;0
3.41;-10.82;-9.69;24.07;20.4;105.03;0
3.35;-9.92;-10.61;24.6;-15.6;95.91;0
3.17;-9.6;-11.08;24.21;-35.84;84.45;0
1.65;-9.48;-11.24;18.55;-40.75;81.08;0
0.23;-9.25;-11.29;8.54;-41.14;86.79;0
-0.76;-8.89;-10.68;-1.16;-41.32;95.58;0
-1.13;-8.9;-10.19;-5.51;-37.83;106.52;0
-1.48;-8.33;-9.22;-0.38;-42.46;118.25;0
-0.22;-8.09;-8.48;12.65;-62.97;121.3;0
1.31;-7.86;-9.02;27.65;-82.82;115.48;0
2.12;-7.46;-9.61;37.16;-99.91;104.64;0
2.12;-6.84;-10.08;37.84;-108.92;91.18;0
2.14;-6.43;-10.28;32.94;-109.96;80.51;0
2.42;-5.77;-10.32;28.23;-103.37;70.01;0
2.88;-5.11;-10.3;25.08;-98.06;57.51;0
3.45;-4.8;-10.36;23.23;-83.32;43.84;0
3.74;-4.77;-10.42;21.39;-68.18;27.88;0
3.75;-4.89;-10.22;19.9;-54.48;9.03;0
3.17;-5.21;-9.97;15.29;-47.89;-10.32;0
1.87;-5.89;-9.96;6.74;-46.4;-25.84;0
1.12;-6.63;-9.6;-8.61;-50.96;-37.58;0
-0.09;-7.96;-8.58;-26.58;-59.62;-51.3;0
-1.15;-8.94;-7.92;-38.48;-50.25;-65.26;0
-3.14;-9.9;-7.43;-40.44;-17.58;-87.06;0
-7.5;-11.39;-7.47;-35.71;25.81;-110.43;0
-12.93;-12.86;-7.56;-47.94;58.25;-108.87;0
-19.08;-15.75;-5.79;-74.89;66.3;-72.33;0
-20.31;-16.45;-2.88;-81.62;80.93;-11.53;0
-15.44;-12.59;-1.39;-42.55;72.15;23.79;0
-11.08;-8.88;-5.43;16.07;85.97;33.2;0
-7.72;-4.72;-7.23;64.96;72.48;63.76;0
-2.56;-1.37;-7.96;82.66;-2.45;89.14;0
3.05;-3;-8.22;44.72;-158.38;92.97;0
8.65;-12.29;-15.77;6.38;-246.18;67.41;0
12.49;-19.67;-20.3;-53.22;-159.63;-63.77;0
10.03;-19.67;-20.52;-126.09;-102.24;-156.29;0
1.12;-16.79;-13.07;-143.2;17.91;-80.75;0
0.62;-7.07;-6.92;-91.21;122.79;31.74;0
5.98;-2.71;-6.18;-14.07;91.28;96.8;0
12.28;-6.04;-9.23;46.93;58.06;88.59;0
13.77;-8.36;-12.39;63.39;39.15;26;0
13.12;-8.54;-13.76;43.58;27.08;-70.25;0
10.82;-7.39;-16.48;8.06;-2.7;-158.21;0
5.12;-9.98;-18.95;-47.62;-39.29;-202.53;0
-2.75;-12.75;-17;-108.69;-39.52;-180;0
-8.02;-12.62;-14.55;-149.36;57.51;-142.14;0
-8.91;-12.39;-10.83;-159.57;111.33;-97.23;0
-6.87;-11.44;-8.61;-143.87;120.88;-65.06;0
-3.75;-10.2;-7.64;-109.43;118.85;-48.93;0
-1.76;-8.57;-7.14;-66.22;103.74;-40.98;0
-0.12;-7.87;-8.66;-31.91;91.15;-37.87;0
1.6;-7.39;-10.92;-15.63;94.09;-42.68;0
2.23;-6.91;-12.86;-14.06;101.28;-58.49;0
2.36;-6.99;-13.55;-24.23;92.72;-83.02;0
0.47;-7.4;-13.9;-39.54;74.46;-99.7;0
-1.42;-8.44;-13.53;-51.93;59.18;-111.11;0
-2.78;-10.21;-12.62;-63.16;41.4;-110.55;0
-3.66;-11.18;-11.83;-82.06;22.78;-92.95;0
-3.82;-11.08;-11.47;-90.27;6.42;-76.13;0
-3.22;-11.53;-10.96;-79.78;-5.35;-68.68;0
-2.69;-11.81;-10.59;-56.77;-16.3;-66.42;0
-1.44;-11.46;-10.69;-36.77;-7.66;-65.62;0
-0.07;-10.57;-10.23;-33.21;28.42;-62.4;0
1.62;-10.33;-8.81;-41.11;55.83;-56.32;0
3.12;-11.12;-7.35;-34.84;59.33;-57.03;0
2.63;-12.17;-8.37;-10.28;66.85;-71.33;0
-0.42;-11.59;-10.97;6.58;85.85;-84.09;0
-3.31;-10.83;-12.25;11.03;107.2;-87.96;0
-6.11;-11.03;-12.79;20.26;113.45;-86.42;0
-8.71;-10.83;-11.85;17.39;82.28;-77.7;0
-10.08;-10.97;-10.65;1.06;66.36;-56.54;0
-10.07;-10.41;-8.98;5.01;73.13;-23.72;0
-7.2;-9.8;-8.27;32.42;71.48;9.13;0
-3.16;-10.46;-9.34;61.05;73.22;21.74;0
-1.52;-11.66;-10.65;78.68;68.73;22.41;0
-2.64;-12.54;-11.6;91.02;37.58;15.2;0
-5.58;-12.91;-12.74;104.62;-5.82;12.68;0
-7.89;-12.62;-12.01;104.32;-24.86;19.32;0
-9.55;-12.69;-10.66;90.37;-29.15;37.9;0
-9.24;-12.85;-9.31;72.61;-24.91;73.69;0
-5.78;-11.99;-9.11;63.08;-43.91;114.93;0
-1.8;-11.67;-10.15;57.23;-61.48;151.41;0
-0.16;-12.87;-11.48;57.45;-65.09;162.78;0
-0.33;-13.76;-12.31;61.65;-68.98;156.71;0
-0.16;-13.58;-12.08;66.27;-69.84;155.05;0
1.13;-14.11;-12.16;68.01;-64.84;159.06;0
2.48;-15.63;-11.94;62.32;-54.89;152.29;0
3.54;-16.36;-11.73;50.56;-38.68;140.74;0
4.45;-16.83;-11.94;37.9;-2.25;128.07;0
4.92;-15.86;-11.86;31.42;39.5;117.13;0
4.63;-13.69;-11.34;25.13;57.81;112.64;0
3.83;-11.34;-11.09;14.02;35.79;113.19;0
3.71;-10.22;-11.51;10.21;-8.62;110.8;0
3.26;-9.75;-11.66;7.93;-49.93;103.51;0
3.03;-9.18;-11.74;-1.02;-69.96;96.42;0
2.31;-8.49;-11.62;-14.32;-77.34;91.93;0
1.51;-7.51;-11.04;-24.73;-87.26;92.48;0
0.41;-7.04;-9.81;-28.45;-79.28;98.92;0
0.53;-6.99;-8.52;-19.91;-66.46;113.33;0
1.39;-7.06;-7.92;1.49;-66.55;122.02;0
2.98;-7.01;-8.41;19.71;-71.99;113.97;0
3.88;-6.72;-9.33;26.2;-75.62;97.63;0
4.49;-6.21;-9.61;26.15;-77.35;79.41;0
4.65;-5.88;-10.02;20.97;-77.18;59.89;0
4.34;-5.36;-10.09;14.16;-73.45;41.94;0
4.19;-5.15;-9.94;10.97;-63.08;26.68;0
3.43;-5.36;-9.6;12.32;-48.68;18.18;0
3.89;-5.3;-9.59;15.93;-37.83;0.8;0
3.43;-5.43;-9.45;16.61;-33.65;-19.79;0
2.28;-5.93;-8.92;9.2;-37.81;-40.99;0
0.43;-6.76;-8.02;-3.27;-51.67;-59.56;0
-1.45;-8.08;-6.47;-12.48;-59.84;-80.16;0
-5.71;-9.87;-5.54;-13.63;-46.35;-104.35;0
-12.59;-12.71;-8.88;-20.27;-8.61;-124.53;0
-19.54;-15.83;-10.48;-56.93;25.88;-98.19;0
-20.31;-17.22;-7.57;-97.49;62.35;-29.67;0
-20.31;-13.87;-1;-94.64;66.35;37.7;0
-13.75;-10.73;0.3;-39.65;19.07;43.59;0
-9.64;-8.34;-3.83;19.1;2.88;60.93;0
-5.53;-6.47;-7.61;71.55;15.33;82.5;0
-1.51;-5.63;-10.37;99.33;-0.38;98.51;0
3.91;-8.2;-12.64;67.55;-87.28;105.73;0
11.12;-19.67;-15.68;12.09;-194.91;57.45;0
17.66;-19.67;-20.11;-71.16;-196.77;-75.43;0
9.46;-19.67;-17.07;-110.95;-87.88;-98.53;0
2.32;-8.62;-8.82;-87.58;104.98;-15.51;0
5.11;-0.23;-7.97;-28.55;149.62;71.42;0
11.5;0.27;-9.24;3.11;108.13;91.13;0
14.99;-4.52;-12.14;14.52;86.83;53.69;0
13.98;-8.62;-14.04;5.36;74.71;-48.37;0
7.72;-10.46;-13.81;-9.51;24.75;-144;0
5.26;-11.99;-14.63;-31.67;-40.56;-206.29;0
-2.41;-14.83;-15.65;-69.71;-85.38;-203.92;0
-10.18;-14.43;-14.9;-102.22;-10.67;-160.42;0
-13.59;-11.69;-12.65;-108.26;83.34;-102.33;0
-10.59;-9.76;-11.2;-112.85;76.96;-57.49;0
-5.64;-9.5;-11.23;-113.9;61.54;-43.29;0
-3.43;-7.73;-8.88;-93.32;54.56;-36.75;0
-1.39;-7.08;-9;-65.34;41.72;-28.1;0
2.12;-6.73;-10.84;-57.68;38.59;-33.3;0
3.86;-6.79;-11.12;-63.85;49.49;-43.26;0
4.1;-7.53;-11.29;-74.19;68.07;-58.53;0
3.09;-8.82;-11.32;-78.45;84.35;-78.84;0
1.51;-10.03;-11.48;-70.46;89.54;-96.2;0
-0.48;-11.14;-11.49;-53.22;79.69;-105.58;0
-1.91;-12.15;-11.65;-43.14;51.15;-100.03;0
-2.38;-12.14;-11.97;-52.45;38.27;-84.59;0
-2.22;-11.58;-11.87;-66.43;52.98;-76.41;0
-2.75;-11.17;-11.06;-65.11;60.47;-73.8;0
-3.3;-10.87;-10.12;-48.34;62.77;-72.51;0
-2.96;-11.06;-9.44;-33.06;80.42;-67.04;0
-1.64;-11.19;-9.75;-23.19;86.07;-58.3;0
0.14;-11.24;-10.82;-10.63;86.49;-55.46;0
0.68;-11.71;-10.89;-6.38;110.58;-60.72;0
-0.18;-12.19;-9.75;-8.66;131.52;-69.86;0
-2.9;-12.25;-10.05;12.33;141.38;-75.23;0
-5.96;-11.82;-11.32;43.26;135.82;-76.03;0
-8.56;-11.34;-11.08;51.62;117.11;-69.9;0
-10.72;-10.73;-10.77;46.06;94.84;-57.96;0
-11.18;-9.99;-10.45;42.34;92.52;-32.99;0
-9.75;-8.66;-9.88;47.19;84.96;4.53;0
-6.73;-8.03;-9.98;60.38;67.39;29.71;0
-4.38;-8.15;-10.28;72.14;58.23;32.72;0
-3.42;-8.75;-10.46;77.48;51.33;29.31;0
-4.29;-10.44;-10.81;79.05;31.03;28.21;0
-5.56;-12.63;-11.14;82.06;-16.05;32.72;0
-6.69;-14.92;-11.2;84.23;-83.52;38.69;0
-7.17;-16.05;-11.52;89.29;-134.19;56.56;0
-7.01;-15.16;-12.09;98.59;-170.62;82.37;0
-5.73;-13.17;-12.52;101.68;-157.35;105.07;0
-4.33;-12.09;-12.89;88.87;-119.17;132.77;0
-3.34;-12.21;-12.69;69.25;-91.67;164.15;0
-1.94;-13.56;-12.28;40.55;-75.57;191.61;0
0.9;-17.66;-12.22;10.4;-44.89;201.5;0
3.9;-19.67;-11.91;-7.34;1.74;185.17;0
6.59;-19.08;-11.12;-5.22;64.04;161.55;0
7.83;-15.69;-9.45;6.29;127.96;144.44;0
6.73;-11.44;-6.7;9.74;136.72;147.42;0
5.42;-9.47;-7.02;17.87;74.53;151.88;0
5.02;-8.43;-9.47;39.39;13.26;130.64;0
4.99;-8.2;-10.13;52.08;-19.8;100.2;0
3.54;-8.42;-10.89;48.39;-49.46;78.1;0
1.82;-8.3;-11.8;37.48;-78.89;63.48;0
-0.57;-8.65;-11.99;19.32;-100.25;61.59;0
-2.91;-9.59;-12;-0.43;-105.7;80.21;0
-3.59;-9.67;-11.01;-14.73;-80.66;110.19;0
-1.46;-9.15;-9.5;-13.12;-43.54;133.74;0
1.27;-8.63;-7.74;3.94;-49.64;133.79;0
3.11;-7.71;-7.94;24.99;-79.35;121.26;0
4.2;-6.65;-9.27;38.05;-99.82;102.33;0
4.62;-5.65;-9.95;43.55;-102.93;82.38;0
4.75;-4.43;-10.71;41.45;-98.48;58.71;0
4.29;-3.62;-11.43;29.56;-86.41;35.95;0
4.32;-3.44;-11.62;12.99;-76.42;16.1;0
4.32;-3.67;-11.3;-1.46;-68.5;-2.36;0
4.23;-4.19;-11.31;-15.66;-60.22;-22.8;0
2.88;-5.61;-11.17;-31.82;-51.3;-31.68;0
2.39;-6.98;-10.45;-49.73;-49.15;-44.38;0
1.72;-8.29;-9.22;-67.88;-55.5;-58.94;0
-0.04;-9.91;-5.63;-78.46;-59.17;-77.04;0
-4.07;-12.08;-1.74;-61.28;-44.33;-98.4;0
-12.14;-14.43;-2.4;-35.25;1.43;-114.95;0
-20.31;-17.48;-6.75;-33.57;71.35;-102.32;0
-20.31;-17.01;-6.62;-47.94;106.49;-40.49;0
-20.31;-10.95;-2.76;-55.9;93.89;33.56;0
-14.54;-7.06;-1.95;-26.67;56.71;72.79;0
-9.6;-4.37;-4.86;31.39;55.83;84.55;0
-4.36;-3.32;-7.86;81.88;22.05;95.68;0
6.29;-1.14;-8.73;79.32;-38.32;80.68;0
8.43;-3.88;-10.58;30.78;-158.56;79.32;0
10.86;-12.25;-17.79;4.53;-246.18;50.36;0
12.62;-19.67;-19.99;-56.59;-246.18;-69.71;0
12.63;-19.67;-22.11;-172.09;-121.71;-175.87;0
-2.35;-19.67;-9.59;-178.52;56.85;-148.89;0
-8.07;-9.58;-3.11;-141.64;225.7;9.93;0
-3.76;0.71;-3.43;-47.95;188.8;135.25;0
6.33;-2.06;-6.5;59.14;91.03;164.95;0
11.84;-6.77;-10.33;107.51;52.62;129.41;0
13.26;-5.5;-12.4;102.23;17.56;47.51;0
12.78;-5;-15.93;58.31;10.52;-57.07;0
10.44;-7.55;-19.6;5.93;2.66;-158.5;0
4.01;-12.46;-19.13;-58.55;-40.26;-199.55;0
-5.16;-13.73;-17.21;-119.64;-82.72;-174.39;0
-10.33;-13.05;-13.48;-164.59;-22.57;-132.28;0
-11.58;-12.82;-10.81;-178.03;61.45;-87.21;0
-10.2;-11.21;-7.77;-152.71;98.53;-47.35;0
-7.19;-8.83;-6.08;-101.43;81.57;-19.14;0
-2.98;-7.7;-6.45;-36.57;62.71;0.32;0
0.66;-7.65;-8.9;17.28;68.08;10.26;0
3.06;-7.82;-11.76;30.75;82.56;-3.56;0
3.41;-8.09;-14.04;13.98;76.86;-23.14;0
2.62;-7.51;-14.88;-14.38;59.75;-47.49;0
1.05;-7.84;-14.69;-41.77;49.99;-69.05;0
0.22;-8.45;-13.98;-65.02;47.46;-82.68;0
0.4;-10.17;-13.01;-83.51;49.54;-87.26;0
0.78;-11.52;-12.13;-95.64;64.49;-87.78;0
0.32;-11.4;-10.96;-101.74;83.57;-90.11;0
-0.82;-11.07;-8.88;-92.67;86.88;-90.27;0
-1.96;-11.6;-6.99;-54.71;57.32;-85.05;0
-2.7;-11.27;-8.09;-6.26;10.49;-83.31;0
-3.01;-10.75;-10.58;12.65;-9.07;-88.86;0
-3.05;-10.47;-11.87;1.73;1.39;-87.79;0
-2.15;-10.08;-12.26;-18.32;29.86;-77.12;0
-0.58;-10.11;-11.78;-38.03;63.32;-67;0
1.38;-10.72;-10.09;-43.63;98.78;-63.57;0
2.39;-12.43;-7.32;-21.45;140.57;-68.39;0
0.87;-13.73;-7.83;29.48;169.36;-74.85;0
-2.6;-12.49;-10.9;63.91;148.29;-82.52;0
-5.78;-11.01;-12.21;68.04;91.87;-88.03;0
-9.18;-10.03;-12.99;56.68;72.65;-85.55;0
-11;-10;-12.95;46.49;85.89;-64.49;0
-9.63;-9.02;-11.45;34.11;104.72;-27.94;0
-7.19;-8.95;-9.59;25.45;107.44;6.89;0
-4.66;-10.09;-8.94;37.47;104.41;17.74;0
-3.3;-11.78;-10.32;66.51;87.07;13.93;0
-4.56;-13.21;-11.96;86.04;55.62;4.13;0
-7.1;-13.89;-12.41;90.84;3.56;-3.85;0
-9.25;-13.42;-11.81;90.31;-41.77;-1.59;0
-10.21;-12.2;-11.16;84.7;-77.92;15.31;0
-9.73;-11.09;-11.12;77.31;-117.12;46.07;0
-8.48;-10.63;-11.72;75.08;-148.32;84.59;0
-6.4;-10.91;-12.86;70.78;-141.87;126.15;0
-4.58;-11.92;-13.03;58.26;-119.02;159.04;0
-3.49;-13.18;-12.73;39.56;-97.15;178.87;0
-2.2;-14.28;-11.88;21.65;-87.31;185.77;0
-0.73;-15.57;-10.96;5.81;-84.52;188.47;0
1.45;-18.16;-9.84;-2.38;-70.28;181.64;0
3.45;-19.05;-8.03;11.45;-42.63;161.72;0
4.6;-17.68;-8.12;44.41;-6.73;142.19;0
5.32;-15.35;-9.62;63.13;36.27;133.36;0
5.53;-12.81;-10.25;59.27;70.42;129.25;0
4.66;-10.56;-10.82;48.93;63.76;127.46;0
4.4;-9.72;-11.65;48.67;29.71;117.06;0
3.94;-9.63;-12.21;51.91;-8.09;98.32;0
3.39;-9.77;-12.7;41.21;-34.56;86.77;0
2.51;-9.38;-13.5;20.43;-50.61;85.74;0
0.32;-9.32;-13.95;-6.65;-67.56;86.21;0
-0.9;-9.03;-13.37;-37.62;-62.89;97.12;0
-1.62;-8.83;-11.26;-61.92;-33.91;113.18;0
-0.6;-8.8;-7.88;-63.7;-24.46;126.75;0
1.29;-8.49;-6.13;-34.32;-54.31;123.19;0
3.21;-7.56;-7;0.4;-80.86;104.03;0
3.87;-6.08;-8.28;25.33;-98.42;80.79;0
3.72;-4.14;-9.04;35.48;-113.25;56.13;0
3.18;-2.71;-9.9;32.02;-128.49;33.25;0
2.92;-2.25;-11.1;17.86;-127.86;12.32;0
2.95;-2.03;-11.16;-1.17;-119.19;-6.9;0
3.62;-2.06;-10.5;-15.08;-106.89;-23.56;0
3.74;-2.82;-8.98;-20.55;-104.03;-41.66;0
3.22;-4.06;-7.83;-23.98;-116.03;-59.98;0
2.95;-5.84;-7.61;-32.57;-123;-76.33;0
2.65;-8.27;-6.83;-36.38;-123.48;-98.8;0
0.76;-12.28;-4.07;-34.56;-123.48;-121.2;0
-5.2;-16.18;-3.73;-26.19;-77.83;-140.19;0
-13.9;-18.81;-7.79;-33.13;35.65;-129.72;0
-19.65;-19.36;-7.97;-64.48;161.31;-71.88;0
-20.31;-15.63;-4.37;-95.3;211.59;7.99;0
-16.79;-10.28;-1.72;-92.64;172.04;31.5;0
-12.82;-7.56;-3.99;-55.89;156.4;53.93;0
-9.16;-4.61;-6.89;1.14;163.46;82.43;0
-2.85;-1.97;-8.06;47.69;79.3;108.3;0
3.37;-3.94;-8.12;38.46;-114.77;107.31;0
9.44;-14.45;-11.86;24.67;-246.18;65.54;0
13.1;-19.67;-16.82;-16.61;-246.18;-65.92;0
8.22;-19.67;-17.34;-84.49;-174;-150.37;0
-1.09;-19.67;-10.89;-99.18;-13.82;-81.81;0
0.6;-6.24;-7.3;-53.27;103.21;18.03;0
6.57;0.02;-9.12;3.39;88.79;82.3;0
11.44;-1.04;-10.9;42.89;47.05;111.98;0
13.13;-5.04;-14.16;57.07;94.52;79.64;0
12.44;-7.49;-16.23;43.1;141.19;-23.14;0
10.58;-8.42;-17.49;10.81;104.33;-120.74;0
6.18;-10.55;-18.7;-42.01;-0.51;-179.57;0
-1.38;-13.08;-18.72;-109.17;-74.47;-178.29;0
-9.02;-13.16;-15.09;-158.48;-39.48;-161.58;0
-12.41;-12.34;-11.72;-176.22;53.67;-122.13;0
-11.43;-10.97;-9.1;-163.55;94.36;-68.17;0
-7.8;-9.26;-7.35;-131.61;87.64;-28.2;0
-2.94;-8.45;-7.34;-89.71;64.21;-13.67;0
0.79;-7.92;-8.23;-49.67;54.24;-9.8;0
3.21;-7.99;-9.7;-22.12;57.29;-13.93;0
4.72;-8.52;-11.55;-10.02;74.36;-30.26;0
5.11;-8.4;-13.36;-14.22;83.01;-53.52;0
4.08;-8.14;-13.92;-28.19;77.01;-73.87;0
2.57;-8.2;-13.63;-44.64;69.63;-92.74;0
1.44;-8.68;-12.87;-57.74;65.25;-108.66;0
0.53;-9.92;-11.97;-65.55;60.9;-115.28;0
-1.01;-11.47;-11.11;-72.81;59.4;-107.03;0
-2.62;-12.24;-10.25;-70.77;56.25;-91.68;0
-3.44;-11.85;-10.27;-47.32;48.76;-83.13;0
-4.23;-11.01;-11.82;-15.01;19.62;-85.3;0
-4.59;-10.03;-13.13;-7;-10.06;-85.81;0
-4.65;-9.45;-13.56;-22.94;-26.01;-80.04;0
-3.32;-9.21;-12.79;-52.58;-15.23;-68.29;0
-1.04;-9.39;-10.29;-82.51;13.91;-57.2;0
0.95;-10.42;-5.71;-78.55;29.75;-51.39;0
1.65;-11.89;-4.7;-21.38;52.29;-57.02;0
0.69;-12.12;-9.64;27.1;115.52;-67.74;0
-1.86;-12.54;-12.69;48.86;121.37;-73.24;0
-4.56;-12.43;-12.97;44.87;65.4;-80.03;0
-7.78;-11.17;-12.58;21.81;45.66;-84.22;0
-10.67;-9.94;-12.49;8.53;45.91;-64.14;0
-10.64;-8.95;-11.64;12.03;65.85;-18.37;0
-7.47;-10.07;-10.32;22.94;80.48;29.75;0
-4.04;-11.55;-9.57;37.77;74.07;44.26;0
-2.73;-12.17;-10.13;55.1;42.05;35.03;0
-4.38;-13.41;-11.13;70.03;13.1;20.56;0
-6.53;-14.12;-11.04;78.81;-22.87;18.13;0
-7.49;-13.88;-10.42;80.78;-50.38;32.16;0
-7.02;-13.53;-9.64;82.31;-65.59;59.32;0
-5.81;-13.17;-9.9;88.46;-95.51;85.92;0
-4.81;-13.19;-11.62;104.45;-123.24;105.12;0
-4.17;-12.89;-12.73;113.09;-115.31;120.99;0
-3.73;-13.01;-12.93;105.39;-78.51;143.68;0
-2.57;-13.18;-12.7;87.01;-29.69;169.75;0
-0.85;-15.11;-12.29;61.71;-8.23;181.81;0
1.39;-17.01;-12.14;40.78;1.78;179.43;0
2.89;-17.35;-11.57;26.52;16.68;167.44;0
4.19;-17.63;-11.45;21.06;50.6;150.15;0
4.55;-16.15;-11.1;25.2;90.82;137.02;0
4.08;-13.29;-10.12;29.5;90.79;130;0
3.38;-10.82;-9.84;32.93;42.88;128.48;0
2.36;-10.14;-10.63;41;-32.96;119.27;0
1.83;-10.34;-11.04;43.98;-71.21;109.13;0
0.83;-10.53;-11.05;38.36;-85.6;107.93;0
-0.29;-10.23;-10.84;29.94;-93.63;112.29;0
-0.86;-9.55;-10.68;23.97;-79.96;123.11;0
0.03;-8.89;-10.4;21.13;-70.12;136.9;0
1.54;-8.55;-10.03;21.89;-77.99;142.45;0
2.98;-7.53;-9.86;24.69;-90.22;137.3;0
4.16;-6.55;-10.01;27.67;-95.84;123.26;0
5.73;-5.28;-10.38;30.57;-90.71;99.44;0
5.89;-4.36;-10.92;34.49;-84.05;69.56;0
5.59;-2.88;-11.13;31.49;-73.73;40.45;0
5.14;-2;-11.37;22.68;-58.75;15.24;0
4.57;-1.62;-11.51;10.32;-35.23;-4.56;0
4.28;-1.57;-11.64;-4.29;-16.13;-19.68;0
3.77;-2.23;-10.82;-19.74;-9.87;-28.25;0
4.05;-3.69;-9.12;-37.88;-23.79;-48.78;0
3.3;-6.05;-7.4;-51.89;-53.68;-72.03;0
2.59;-9.01;-5.14;-58.77;-97.93;-101.87;0
-0.61;-12.6;0.28;-46.88;-155.31;-149.95;0
-7.07;-15.38;-1.02;10.28;-148.22;-208.52;0
-15.81;-19.67;-11.21;24.88;-26.6;-220.42;0
-20.31;-19.67;-12.37;-30.53;85.25;-132.64;0
-20.31;-16.93;-7.52;-92.35;175.09;-12.66;0
-17.74;-9.44;-2.41;-110.85;185.88;39.15;0
-12.89;-6.53;-3.18;-90.04;158.47;75.67;0
-8.36;-5.37;-6.26;-33.3;121.8;99.42;0
-2.73;-6.12;-8.41;25;10.33;113.36;0
3.77;-11.46;-9.67;42.62;-119.88;113.35;0
11.92;-19.67;-12.44;15.94;-217.28;59.99;0
15.82;-19.67;-16.63;-9.97;-202.91;-13.71;0
8.68;-13.67;-12.69;-25.09;-95.89;-29.55;0
5.59;-6.41;-11.98;-26.16;26.73;9.86;0
8.26;-3.24;-12.79;2.26;84.04;37.26;0
11.39;-1.73;-13.27;9.35;70.96;26.24;0
12.86;-3.59;-15.21;-13.37;68.65;-14.45;0
10.63;-7.05;-16.86;-36.62;84.3;-82.49;0
6.74;-9.92;-17.12;-57.06;69.58;-143.98;0
0.76;-12.11;-15.57;-84.16;20.55;-162.57;0
-5.87;-13.61;-12.44;-107.45;-5.59;-136.94;0
-9.07;-12.77;-10.51;-110.78;35.34;-108.42;0
-8.57;-12.1;-8.66;-85.58;87.11;-79.4;0
-6.39;-10.38;-7.56;-51.28;90.49;-54.13;0
-4.09;-8.65;-8.65;-26.66;60.31;-42.6;0
-2;-7.59;-11.58;-15.37;46.49;-36.18;0
-0.68;-7.02;-12.99;-10.09;49.71;-32.2;0
0.39;-7.37;-13.46;-6.62;61.83;-32.26;0
1.33;-7.91;-14.98;-20.32;60.34;-35.06;0
2.45;-8.13;-14.91;-43.87;48.64;-48.32;0
2.72;-8.67;-13.99;-72.78;30.37;-66.49;0
2.91;-9.42;-12.81;-98.74;23.73;-84.68;0
2.13;-10.98;-11.48;-111.93;27.56;-96.96;0
0.61;-12.35;-10.68;-114.34;21.91;-99.51;0
-0.98;-12.7;-8.52;-107.4;22.69;-94.26;0
-1.85;-12.62;-6.27;-78.59;15.95;-82.46;0
-1.55;-12.13;-6.9;-28.15;7.97;-73.27;0
-1.1;-11.33;-9.71;6.44;33.94;-76.23;0
-0.64;-10.22;-10.77;8;57.14;-78.37;0
-0.05;-9.87;-11.8;-7.82;52.71;-74.59;0
0.89;-10.22;-12.15;-24.13;54.27;-74.26;0
0.83;-10.7;-11.7;-30.16;55.74;-81.39;0
-0.12;-11.33;-10.11;-22.55;82.94;-91.12;0
-2.56;-12.1;-8.9;0.78;129.23;-92.77;0
-5.38;-12.37;-8.63;28.22;141.83;-84.5;0
-8.83;-11.58;-8.94;43.69;118.48;-77.11;0
-11.81;-10.34;-8.89;50.23;83.49;-69.18;0
-13.42;-8.94;-9.1;55.95;63.07;-40.36;0
-11.62;-6.8;-9.61;67.3;42.33;9.19;0
-7.8;-6.93;-10.54;80.49;37.91;38.61;0
-4.42;-8.49;-11.71;90.77;30.49;59.9;0
-2.17;-11.67;-12.58;97.89;15.33;57.16;0
-1.94;-14.78;-12.84;93.13;-13.53;33;0
-3.08;-16.44;-13;84.32;-68.38;14.92;0
-5.61;-15.64;-12.55;75.5;-141.24;30.58;0
-7.26;-14.03;-12.28;65.8;-184.15;57.41;0
-6.39;-12.67;-12.32;60.51;-167.57;86.29;0
-4.87;-12.04;-12.2;57.03;-131.36;119.13;0
-3.32;-12.63;-11.88;46.37;-105.89;152.97;0
-1.39;-13.38;-11.6;28.81;-85.29;179.77;0
0.53;-15.25;-11.6;11.4;-55.19;190.71;0
3.68;-18.58;-11.09;-2.29;-4.55;181.85;0
5.79;-19.1;-10.06;-8.3;63.53;164.34;0
6.71;-16.83;-6.92;8.74;126.62;145.8;0
6.22;-14.48;-5.42;48.42;128.16;138.31;0
6.03;-12.57;-8.76;69.44;123.11;134.76;0
5.22;-10.11;-10.73;71.26;94.14;119.64;0
4.17;-8.2;-11.42;72.41;17.68;90.2;0
2.56;-8.45;-12.19;63.01;-41.69;72.29;0
-0.13;-9.13;-12.98;43.84;-78.1;66.13;0
-2.06;-9.28;-12.5;20.56;-78.57;72.83;0
-3.87;-9.87;-11.37;0.38;-62.68;88.4;0
-4.37;-10.36;-9.73;-8.69;-49.65;113.3;0
-1.79;-10.24;-8.42;-7.61;-52.97;130.9;0
0.97;-9.74;-8.2;7.55;-69.41;133.06;0
2.58;-8.49;-8.71;28.93;-88.93;123.03;0
3.57;-6.98;-9.9;42.1;-99.15;110.48;0
4.28;-5.43;-10.8;46.62;-97.84;95.21;0
4.66;-4.01;-11.23;45.02;-86.22;74.11;0
4.54;-2.71;-11.45;34.66;-75.76;50.99;0
4.21;-1.97;-11.35;19.28;-64.28;29.68;0
3.71;-1.93;-11.14;-0.7;-52.48;10.55;0
3.62;-2.22;-10.2;-19.07;-48.46;-11.07;0
3.56;-3.05;-9.06;-28.05;-50.41;-36.05;0
2.14;-4.29;-9;-30.06;-53;-59.87;0
0.39;-5.74;-8.53;-36;-62.75;-78.84;0
-0.53;-8.22;-7.78;-39.58;-77.15;-92.82;0
-2.67;-10.63;-4.74;-36.18;-109.71;-112.96;0
-6.7;-14.56;-1.86;-23.32;-137.02;-127.51;0
-13.75;-17.1;-3.43;-23.9;-93.86;-125.33;0
-20;-18.69;-5.56;-42.61;-27.74;-98.68;0
-19.79;-18.1;-4.23;-63.6;60.87;-29.94;0
-13.56;-12.47;-3.53;-67.65;111.78;10.22;0
-8.12;-7.14;-4.59;-46.03;132.6;47;0
-2.93;-3.53;-5.94;-11.32;138.49;88.09;0
1.67;-2.52;-7.03;27.24;60.16;117.66;0
6.51;-8.43;-7.75;44.42;-97.95;126.2;0
11.01;-19.67;-13.68;44.91;-173.96;63.13;0
12.29;-19.67;-18.41;-0.11;-119.22;-60.17;0
7.1;-19.67;-17.35;-47.52;-47.78;-88.93;0
2.42;-10.44;-14.1;-54.42;28.07;-36.03;0
3.95;-4.3;-13.07;-41.22;68.8;17.68;0
4.91;-1.79;-12.58;-25.8;69.43;47.26;0
6.59;-3.11;-12.96;-7.68;52.22;43.26;0
7.52;-6.67;-13.64;-1.54;53.23;-10.49;0
7.69;-9.16;-14.26;-4.26;32.14;-86.78;0
5.59;-10.8;-15.57;-25.33;-17.84;-130.55;0
1.43;-12.07;-16.37;-63.51;-45.18;-134.14;0
-4.15;-11.99;-15.06;-103.39;-30.35;-108.55;0
-5.68;-11.16;-13.12;-125.99;35.43;-95.42;0
-5.49;-9.78;-11.43;-133.11;76.52;-74.64;0
-3.85;-9.14;-10.17;-124.86;94.61;-53.96;0
-1.69;-8.97;-9.78;-106.57;96.76;-45.52;0
0.26;-8.84;-10.22;-81;102.04;-43.2;0
1.32;-8.48;-10.5;-56.38;110.41;-40.5;0
1.79;-8.29;-10.8;-43.37;102.88;-43.45;0
1.99;-8.37;-11.71;-38.21;86.58;-54.7;0
1.47;-8.32;-11.96;-37.03;67.99;-73.36;0
0.74;-8.74;-12.01;-39.26;53.84;-93.35;0
-0.58;-9.55;-12.24;-42.8;41.5;-104.83;0
-2.06;-10.53;-11.62;-48.71;32.35;-103.09;0
-2.48;-11.16;-10.98;-59.96;29.33;-95.59;0
-2.34;-11.51;-11.07;-64.94;33.59;-81.45;0
-2.53;-11.26;-11.21;-55.22;27.12;-71.44;0
-2.24;-11.33;-11.57;-39.5;-0.23;-70.91;0
-1.76;-11.35;-12.19;-33.26;-7.5;-74.09;0
-1.06;-11.22;-12.14;-38.58;9.17;-76.22;0
0.69;-11.09;-11.17;-54.12;42.46;-71.55;0
2.65;-11.67;-9.06;-65.31;53.17;-66.94;0
3.08;-12.55;-7.18;-47.97;48.02;-76.79;0
0.37;-12.13;-7.49;-15.38;76.47;-92;0
-2.57;-11.25;-10.12;7.11;119.73;-90.41;0
-5.89;-10.95;-11.38;24.91;139.87;-81;0
-8.63;-11.23;-11.23;28.11;115.76;-70.04;0
-11.09;-11.31;-11.2;22.67;87.89;-59.84;0
-12.45;-10.38;-10.44;19.21;88.83;-41.42;0
-11.56;-8.56;-9.72;25.81;86.14;1.14;0
-7.6;-8.26;-10.01;45.6;75.68;31.02;0
-4.74;-9.43;-10.16;58.74;73.85;45.72;0
-3.51;-10.17;-10.4;68.87;43.75;41.96;0
-4.53;-11.22;-10.71;76.27;12.67;35.95;0
-6.56;-12.99;-10.76;76.36;-6.35;35.23;0
-7.95;-14.21;-9.94;79.84;-30.03;45.11;0
-7.39;-14.25;-9.64;81.02;-50.74;66.53;0
-5.99;-14.24;-10.14;91.94;-86.31;90.62;0
-4.52;-14.57;-11.83;105.45;-129.45;112.41;0
-2.93;-13.87;-12.92;111.69;-132.19;125.42;0
-2.67;-13.8;-13.15;103.96;-107.1;144.18;0
-1.51;-13.78;-13.16;87.51;-65.86;165.44;0
0.25;-15.42;-12.76;62.57;-21.96;176.99;0
2.34;-17.37;-12.48;37.26;18.38;179.09;0
4.18;-18.5;-11.8;16.22;53.76;174.16;0
6.04;-17.99;-11.44;6.81;107.63;160.48;0
6.56;-15.78;-10.21;5.18;152.52;145.59;0
5.94;-12.42;-8.61;4.12;138.45;140.67;0
4.59;-10.01;-8.37;9.7;68.64;134.92;0
3.86;-8.68;-9.5;26.68;-19.41;116.3;0
3.14;-8.58;-9.81;37.1;-67.44;94.59;0
1.49;-8.27;-10.29;34.46;-102.86;81.68;0
-0.15;-8.69;-10.57;26.74;-135.97;79.96;0
-1.69;-9.38;-9.68;22.24;-128.75;99.63;0
-1.29;-9.75;-9.56;21.54;-104.92;120.97;0
0.72;-9.53;-9.07;26.27;-90.38;131.47;0
2.83;-8.62;-8.51;35.68;-89.56;133.39;0
4.04;-7.25;-9.1;44.59;-86.7;125.48;0
5.3;-6.2;-10.54;47.31;-73.86;111.05;0
6.2;-4.87;-10.84;46.59;-62.18;86.98;0
6.21;-3.77;-11.24;40.84;-49.76;57.45;0
5.64;-2.98;-11.84;29.28;-37.52;33.2;0
4.59;-2.52;-11.82;13.31;-24.8;15.14;0
3.05;-2.26;-11.32;-2.9;-23.32;1.97;0
3.11;-2.34;-10.59;-16.3;-29.56;-12.1;0
2.64;-3.12;-8.97;-30.03;-55.8;-32.94;0
1.7;-4.61;-7.69;-47.72;-94.83;-57.91;0
1.59;-6.71;-7.11;-64.93;-134.46;-88.72;0
