label;acc_x_avg;acc_y_avg;acc_z_avg;gyro_x_avg;gyro_y_avg;gyro_z_avg;acc_x_max;acc_y_max;acc_z_max;gyro_x_max;gyro_y_max;gyro_z_max;acc_x_min;acc_y_min;acc_z_min;gyro_x_min;gyro_y_min;gyro_z_min;acc_x_stdev;acc_y_stdev;acc_z_stdev;gyro_x_stdev;gyro_y_stdev;gyro_z_stdev
1;-2.745408643;-9.997320796;-10.87425372;9.241166246;12.45118083;1.665686604;0.809210235;-6.801816774;-9.093997292;47.72808047;63.53464807;141.0607967;0.809210235;-11.80469946;-11.931628;-12.8641934;-19.10002381;-63.38374345;1.494008433;1.24977618;0.610935803;16.87188342;21.20824084;75.05406178
1;-2.006819386;-9.18792347;-10.30817367;-9.618978451;-5.039043019;-14.83727337;2.867064286;-4.720256127;-3.333542323;27.46043536;86.86429513;140.6469998;2.867064286;-14.2992606;-16.9208887;-86.73762264;-90.26547537;-120.841587;3.183522586;2.129429481;2.443881406;20.20230709;43.57518774;74.53808413
1;-2.018543696;-10.54325431;-10.38252927;7.027077813;3.329715545;32.95484345;1.909214591;-7.490093194;-9.009975384;60.6946396;58.57008241;144.5083948;1.909214591;-12.64231458;-11.88816639;-13.17527259;-29.82619423;-79.76664764;1.992416029;1.559396337;0.782547465;22.68486027;24.30870308;95.51379268
1;-2.193421149;-9.11653475;-10.53754142;-6.524870719;4.177992031;-49.19943373;7.912325955;-5.427941214;-7.067183158;9.293568898;62.42785033;76.84835025;7.912325955;-15.75539085;-13.24535179;-42.29160008;-44.96119752;-95.42289291;3.515470856;2.774378328;1.262243733;13.06569653;24.5642558;45.43992304
1;-2.385835514;-9.630984052;-10.2148729;9.233423912;-3.760684968;64.97068665;1.00389201;-5.18765278;-8.490134459;61.4056937;68.82077603;173.7667175;1.00389201;-13.25334379;-12.85903199;-15.32900104;-86.92497538;-97.36427043;2.133072796;2.347620437;1.037247133;20.81820444;43.76802116;96.92421254
1;-1.95119251;-9.928022612;-10.61336794;-13.24202598;18.8928613;-84.44573723;10.45692824;-4.224549668;-6.201205174;46.41975806;111.1997027;-5.774717656;10.45692824;-16.03424886;-14.07827338;-66.3361099;-69.95623681;-164.4430992;4.665260525;3.194820903;1.522095672;24.4150296;48.41803668;36.54797146
1;-2.506912487;-9.389792141;-10.47196923;-2.638040942;-2.902938234;53.00971726;5.621578662;-1.60796689;-5.416385093;44.65563218;94.63159421;184.3212517;5.621578662;-16.48663674;-15.95776987;-70.26290441;-140.3879473;-133.94512;4.561523702;3.398243401;1.801338649;24.74124044;55.33160349;105.2160816
1;-2.167644647;-10.70847849;-11.1739073;2.837546533;2.205999478;6.856801395;12.16324754;-5.233537859;-6.34068608;69.21623061;118.0955632;186.4084612;12.16324754;-15.76131379;-15.32442383;-69.9655445;-102.6878451;-111.776954;4.756697904;2.417015053;1.740747566;33.91281301;56.54200371;119.6396055
1;-1.773922228;-9.151016733;-10.44114116;-7.590253182;0.423824436;-30.47896777;16.60452405;-0.789797367;-3.345525904;29.4372397;159.1730985;176.3819534;16.60452405;-16.67017013;-17.10907439;-93.2129114;-108.6843449;-119.6892879;5.91023978;3.200388489;2.706572301;23.17533073;59.50330178;86.2562614
1;-2.900025785;-9.559186906;-10.12356775;10.16166602;4.318978451;42.20822692;1.141847349;-3.837641326;-8.136822437;51.84891051;134.2346788;177.3075218;1.141847349;-15.33135643;-13.19342643;-11.93965368;-72.51298322;-123.0166465;3.007833839;3.014683948;1.29513183;16.92005009;41.06002864;105.1542819
1;-3.743956732;-9.412388464;-11.30971693;1.332248628;8.236320581;-53.8224081;15.52525771;-0.42988666;-2.140068416;63.89600255;169.0308097;150.8304983;15.52525771;-16.8931777;-19.66688568;-95.13401817;-81.01571375;-115.151225;6.035547328;3.273909399;2.895836324;31.79270151;60.64880804;71.38577313
1;-1.34955356;-10.01289588;-10.35618363;-7.243466467;1.70911526;26.60044611;13.67851149;-3.854210101;-2.232946298;59.8346142;122.0868059;168.8071229;13.67851149;-16.23836251;-19.47882929;-103.1047348;-140.2496792;-151.884635;6.568055845;3.336962506;3.195985322;29.80137003;57.32941926;107.9439069
1;-2.554648574;-10.82110678;-10.56537625;8.890483418;-3.13827748;35.76575049;2.175883646;-5.572612573;-9.051221622;74.59502446;68.92258359;196.9885718;2.175883646;-16.77520734;-13.0186966;-17.46893442;-55.74116694;-110.3950729;3.148883767;2.512510368;1.100815063;24.63944753;27.43011866;126.6385756
1;-2.229363453;-9.365968548;-10.66183485;-10.26527011;3.574095384;-69.11765458;12.59692364;-4.03900591;-4.67932977;10.73474029;106.0067134;95.35533496;12.59692364;-18.54513136;-15.47635203;-52.82750289;-65.0452929;-126.2076915;4.963704441;3.48063026;1.808602471;12.92272149;39.17590039;56.03431597
1;-3.401820794;-9.135729475;-10.30582489;4.99975138;3.375297186;45.4755936;1.514891284;-2.16811587;-1.981338132;56.76719257;132.3089192;179.0611064;1.514891284;-15.91711103;-16.82941919;-100.3469361;-152.5042166;-122.6292342;4.169961646;3.599456272;2.653933702;30.03191307;61.66683972;105.4108896
1;-2.369680997;-10.46173488;-11.13410773;4.205611534;7.746863282;-10.53645657;13.61412464;-3.744843687;-7.427327843;70.49141604;99.04959294;206.5475763;13.61412464;-16.17890982;-15.5496851;-39.15628383;-56.86804091;-123.2050463;5.164059062;2.778971243;1.711607955;26.10083059;42.29136397;119.0805408
1;-1.5412602;-9.560901696;-10.44528575;-11.79296328;-2.772860733;-13.43308773;18.05609247;-2.563268584;-3.637528027;21.66919544;125.6747006;208.10379;18.05609247;-19.61991261;-14.45353541;-72.1209499;-104.6837027;-143.3117226;5.99663619;4.666074001;2.236298076;21.20206698;49.62731903;118.3207538
1;-2.154579828;-9.617466785;-10.46118533;5.760725521;9.260047746;40.82778414;3.208097548;-3.141646432;-8.47858192;69.88558566;159.7740791;177.5358971;3.208097548;-17.51271637;-14.64483406;-32.08871826;-55.72765045;-137.2202877;4.007011167;3.765367292;1.424885841;27.29102415;48.78372961;122.4106016
1;-4.101770927;-9.542341898;-10.68462798;-4.470236083;1.686083817;-57.16646719;14.94467342;-2.897331632;-2.213547798;68.6848435;96.42712036;145.0335136;14.94467342;-16.30157334;-15.90037198;-86.11728918;-104.5849718;-160.6913302;7.106657478;3.418595081;2.697231874;33.31433733;49.23585295;78.10974551
1;-1.739282675;-10.06268058;-10.57160143;-1.083740015;7.032815758;28.72940812;19.93457867;0.896267666;4.736180753;71.57274148;178.8389532;202.6218976;19.93457867;-17.24529456;-26.3074709;-150.2521353;-142.9440689;-157.3530505;6.868829059;4.170819702;4.950476442;38.34377666;79.14703269;125.2497027
1;-2.128724616;-10.32897781;-10.57167878;9.739826567;-3.002630344;38.1172014;6.683662504;-5.098443099;-8.26321752;65.90512332;53.53673728;198.8769999;6.683662504;-15.77057568;-13.60337514;-21.86520727;-68.41464381;-137.4982275;4.54853826;2.80158757;1.383832718;23.41260703;23.7046245;130.0024722
1;-3.600819735;-9.625873049;-10.87257305;-3.384443665;11.40015799;-73.95390523;10.99605464;-3.528737189;-4.946205807;67.8530815;123.8076866;137.8315235;10.99605464;-17.45624608;-17.76199376;-73.60077901;-66.43957166;-161.9269434;5.367226791;3.297042972;2.13182459;29.02651705;45.64192352;70.99892028
1;-1.367770069;-10.12518738;-10.48117738;-2.569405712;1.901991039;35.81299078;15.13314439;-3.04282726;-0.750308197;45.36174729;90.62271131;200.9193615;15.13314439;-18.01237389;-20.91835544;-119.9749187;-139.8073547;-162.6949447;5.840390061;4.190957854;3.355664062;31.65496653;51.72187299;123.95257
1;-1.964531357;-10.61962894;-10.91165835;3.199514248;-3.677599801;31.88600562;6.07533413;-3.230112374;-7.448207892;71.07374478;83.14901526;194.2278564;6.07533413;-17.92372471;-15.19122601;-57.30581886;-134.8569735;-124.6708611;4.978733093;3.372381979;1.982792957;27.29228841;48.19695009;126.2645558
1;-2.365965206;-9.707240419;-11.23426058;-1.123963064;28.59088122;-78.62823109;11.94292901;-4.138068178;3.613649549;100.8661983;111.8728841;31.50145804;11.94292901;-16.41986535;-26.37526503;-133.7018303;-145.174133;-171.2735638;6.855490557;2.679605529;5.040233273;41.88563068;54.80603829;52.23768509
1;-1.823072361;-9.970617916;-10.44120782;-9.429566946;-12.92965156;59.71358081;17.13537163;-3.61641437;0.183942623;70.76073284;86.20435312;194.4641055;17.13537163;-16.75292681;-21.9615912;-123.4892912;-125.5803179;-177.3809931;6.719236282;3.771447138;3.908315777;41.12185515;51.32121042;116.6197729
1;-3.001078718;-11.08061177;-10.83992511;6.730342916;6.407388545;15.55368404;9.462792505;-4.977566248;-7.490910509;85.89962822;73.09901623;203.4121374;9.462792505;-16.89145792;-14.84290587;-37.10310703;-88.34526142;-125.0643832;5.138082733;2.739165779;1.949168661;29.56100761;39.2415319;134.7059353
1;-2.32878618;-9.25391979;-10.85331682;-4.461136493;9.407353922;-66.42809334;16.48372234;-1.31806644;-0.204518623;37.81944714;163.9698245;126.9309903;16.48372234;-16.27037407;-22.4285632;-113.9621183;-129.3079086;-138.6319033;6.542929046;3.575026251;3.395843911;27.74366162;61.01119066;70.9093586
1;-1.632929074;-9.783641533;-10.22133046;-1.344225122;-0.124880718;42.76461101;12.06042805;-1.477187954;-1.146285995;73.84784294;124.2007461;182.8190867;12.06042805;-18.26894049;-17.27807895;-122.7357407;-122.0488;-156.9411439;5.597760125;4.148490091;3.262553062;38.27810841;55.71851976;111.4378444
1;-2.74217258;-10.97112673;-10.84610281;4.438407844;-4.623834989;24.59320407;4.598715257;-3.172935439;-7.136768137;68.53835831;55.9130693;187.7021165;4.598715257;-17.29974256;-14.7815946;-62.69063805;-125.2321496;-112.7502467;4.430942519;3.257281149;1.978423784;26.83853712;42.62133737;124.7665561
1;-1.234967287;-9.584726227;-10.9791207;-3.424321198;20.54214263;-71.07965275;14.77347203;-3.54037984;-1.679378357;69.47376539;102.8709708;77.35952333;14.77347203;-16.33319665;-22.54660902;-108.4669815;-162.4054398;-154.9645205;6.859563866;2.680386637;3.880777398;34.18604843;56.95716393;59.42461233
1;-3.346061702;-10.00054379;-10.4180432;-4.799270589;-9.161802169;52.95289531;5.433253973;-4.308996547;-0.551747142;65.02525096;109.1860313;189.0268077;5.433253973;-17.76543131;-22.20750579;-126.2149093;-136.5007687;-179.7457833;6.365090116;3.951574528;4.025161907;45.15699133;66.00812497;115.1017555
1;-1.570159575;-11.00856755;-11.52032975;0.220828058;16.08922841;-5.679287635;15.13748761;-5.391413039;-8.126652149;54.8337697;106.002169;192.537448;15.13748761;-17.8636914;-14.42646123;-60.19820077;-114.9090594;-130.8907311;5.529397272;2.981324589;1.435965352;28.20655783;56.37816521;124.4500448
1;-1.20872764;-9.675948026;-10.59711464;-5.226981733;-3.489167968;-27.87332391;16.43200246;-0.32891475;3.544167339;47.99393121;101.6418947;191.5903969;16.43200246;-15.05289247;-21.17955098;-132.4627712;-114.7929742;-166.5149212;6.505800146;3.695992925;3.98552358;31.38904494;52.71945008;110.7120142
1;-3.049027975;-9.166724219;-10.67786066;1.341104802;4.337014577;32.52919056;5.183268425;1.588644671;4.655136837;87.51886796;156.5543192;190.5620391;5.183268425;-16.85862577;-27.25960873;-166.5309028;-104.5129879;-177.0835985;5.335693356;4.244194834;4.792270918;42.5846815;65.975608;124.8462681
1;-3.082679562;-10.91623154;-11.25750395;5.85462754;-4.883003663;15.52931977;15.49705586;-4.425186596;-4.908849495;86.76093033;73.97742951;191.9155471;15.49705586;-16.9405648;-18.63810502;-53.1045793;-78.09336889;-119.811736;5.870230834;3.094320855;2.715288237;32.54274857;41.08765758;120.6940082
1;-1.453383024;-9.567430674;-10.73081503;-7.403744208;6.20080814;-52.56358536;17.95905277;-0.935512536;-0.231981933;45.28913724;171.261292;154.8666562;17.95905277;-15.71343224;-20.93925844;-122.0922833;-107.2257362;-149.0778279;6.546312738;3.132363043;3.755758528;29.69719328;67.89940646;85.18837666
1;-3.733925135;-9.17348806;-10.50440505;7.525241224;1.908426059;47.96172456;2.394729095;-0.885145577;-5.839909693;66.94976625;119.1163516;197.1566461;2.394729095;-16.5915438;-19.41769777;-99.07042925;-78.09613888;-155.4085964;4.697882171;4.061437181;2.616712236;28.73442182;43.418366;123.5833031
1;-3.055532173;-11.15893314;-11.03339101;2.424402746;1.697338812;-10.57215045;6.43496775;-3.045983373;-0.789299119;72.51913808;60.2240216;218.2351319;6.43496775;-17.31699381;-18.44960466;-64.32824519;-53.85340226;-138.1653689;4.444456571;3.301452512;2.52908197;29.73930064;25.12603763;123.2505754
1;-1.846923048;-9.706381883;-10.53133945;-3.663825646;6.744638333;-25.79068955;13.64368113;-3.873776914;-4.694011036;25.83449009;179.4484061;214.0633047;13.64368113;-17.09278057;-20.39295127;-80.58891267;-87.51944569;-182.7672586;5.618379765;3.271659986;2.584839154;21.38144801;64.11742717;119.362274
1;-2.998380525;-9.624221116;-10.35804758;8.984871751;6.125681403;39.60497144;3.007651753;-2.938412104;-8.047107866;59.72566224;161.5462379;200.6540506;3.007651753;-16.85195914;-14.63084375;-16.33373792;-77.0321074;-139.0320013;4.527725049;3.872980871;1.531203644;19.03721787;45.63344102;127.014693
1;-3.785376676;-9.697417289;-11.33173847;0.034857332;-4.136758397;-42.85047383;18.46791084;-2.603869527;-3.322664253;61.3949114;156.1636945;186.4146551;18.46791084;-15.99583123;-18.61018312;-99.26583143;-95.45215439;-125.9058224;6.50005309;3.146304662;2.673797509;31.62715672;51.98175614;90.63994739
1;-1.915784703;-9.585118952;-10.51922981;-6.385582849;3.360655995;21.71488774;10.19338658;-2.209367522;-5.89142989;15.71280196;132.7765337;202.0546485;10.19338658;-16.67596171;-15.30365415;-62.80835446;-53.47902812;-121.9595306;4.514631868;4.17846108;1.785479476;18.71239134;43.87544297;120.9096622
1;-3.500398544;-10.71118626;-10.20202933;11.99989872;-3.592383185;45.85502202;2.296303059;-2.772292805;-8.56164362;58.19751958;41.67465019;201.9584718;2.296303059;-16.29534974;-12.84473415;-17.37380407;-44.54635228;-115.6055766;3.187953765;4.028163446;1.108326518;22.30944268;23.08134313;116.7817569
1;-3.718178952;-8.741672972;-10.97382072;1.072532864;17.39025571;-80.83022526;13.35679994;-1.183893073;0.055108435;68.34449821;196.4646906;99.66385592;13.35679994;-16.23042987;-22.47353198;-97.69633548;-67.59956658;-170.4785941;5.604276197;3.477850543;3.834075453;31.62217702;59.02261859;63.7046649
1;-1.57569568;-10.22312417;-11.02248313;-3.958963669;3.319422978;32.56277109;12.36745128;-4.945317122;-3.358916931;96.67033367;239.0019726;181.5503654;12.36745128;-17.42508624;-25.23136286;-86.48295388;-194.4873305;-125.7253182;6.060637052;3.169337643;4.286557205;36.82849738;91.7790204;101.021222
1;-2.421390876;-10.96344548;-10.64103254;8.16496778;-9.82871397;36.30195291;5.495046447;-4.424505968;-7.191593589;81.28796921;29.5092218;217.8674429;5.495046447;-18.94119496;-14.25908841;-18.60613087;-60.74397495;-133.0947464;4.363151808;3.459917812;1.864094126;27.00856689;21.12171602;133.6638133
1;-2.987490441;-9.284101974;-11.1392928;0.298449378;17.51540495;-83.42292632;10.28071723;-3.081349724;4.80692121;91.40526336;139.6226217;78.81008603;10.28071723;-15.64056407;-28.09100339;-142.8944593;-117.1682587;-191.413214;6.245409204;3.026957936;5.15502365;40.62407834;58.46084513;62.61602029
1;-1.989589551;-9.762973379;-10.64377825;-0.212531371;0.828009693;62.02497732;8.652242207;-3.655064398;-2.550983159;82.71494678;156.6353124;213.5701324;8.652242207;-16.82501205;-22.67264937;-104.9680346;-68.22257293;-133.9964316;4.725482182;3.874787208;3.399827895;33.69259918;54.59126314;117.6568698
1;-3.576142039;-10.8966785;-10.79853959;12.7660394;-9.475049336;18.43231657;0.844841581;-2.981138587;-8.39021377;41.68105746;33.8891418;184.9602217;0.844841581;-14.38800649;-13.24117654;-8.61095729;-72.12582782;-136.6317522;2.874750868;2.743155919;1.193137552;13.34070215;25.2151281;120.8818883
1;-2.702071809;-9.180044904;-10.94441674;-4.033906747;11.15787309;-79.54418319;10.2463681;-3.278564275;-0.227819379;36.13035456;160.8883865;52.78092599;10.2463681;-14.05114027;-18.05161097;-91.50486604;-142.6355352;-134.8278173;4.71339876;3.349778063;2.8972846;24.52603092;65.34652499;46.95574505
1;-1.779549779;-9.776730047;-10.63584532;4.419643374;8.268541131;47.0060694;6.168285019;-3.848573239;2.471035768;52.21970566;118.1087505;190.3052406;6.168285019;-16.42765677;-23.52987114;-126.5731773;-148.0319196;-134.4527349;5.151168189;3.71532238;4.269105713;35.62681728;57.75683253;108.9628129
1;-2.82759047;-11.06812307;-11.31127471;5.469863724;-8.658724347;24.98685835;3.813861423;-4.075571023;-8.143441649;73.39266529;52.21329138;202.2237597;3.813861423;-17.33358302;-15.28574028;-57.2276081;-133.9927128;-131.8142664;4.121381982;3.127795826;1.838808103;29.37072368;42.52473333;134.478275
1;-1.611889082;-9.442138365;-11.03234851;-0.593242047;23.73821829;-73.16832267;11.60090215;-3.944394314;1.409593407;85.47933527;135.5198452;101.7990651;11.60090215;-16.00960909;-27.7252785;-136.7048056;-139.9516738;-150.8448608;5.680687487;2.814055339;4.828890497;36.90098229;52.59467044;62.91031632
1;-3.014887378;-9.866191789;-10.73712612;-5.489622965;-5.590593786;59.04006668;6.127645542;-3.858959265;1.545011428;86.5951767;124.0160126;191.1995575;6.127645542;-17.60696962;-26.66104267;-119.2818226;-124.2888752;-122.2390482;6.200548024;4.093713924;5.02554247;47.0987085;63.89186482;102.2586148
1;-2.178793916;-11.08054849;-11.38460072;5.802439241;-4.838985253;-0.653059283;13.54793842;-5.761183701;-8.118985444;70.15016358;58.97939318;219.1368438;13.54793842;-17.76305864;-15.38148259;-22.30049859;-95.5893314;-128.8292907;5.368865677;2.911384857;1.817809272;22.64419829;37.67546863;136.3711481
1;-1.519651307;-9.814196922;-10.85531222;-6.072890422;3.874771894;-42.018618;12.15455578;-0.20770679;6.201905556;61.87916454;124.0003829;188.6927882;12.15455578;-15.43443331;-26.54991011;-146.6591768;-187.3368668;-162.726117;6.183204241;3.620968384;5.27603821;37.6802067;61.14942334;101.3646969
1;-3.424648967;-9.032914245;-10.39237333;4.270448543;2.023852773;37.19163908;5.238193529;-2.698775136;2.308501833;83.75931386;88.59130488;178.9291176;5.238193529;-15.29512195;-22.45272547;-139.7470088;-150.493804;-142.7469994;5.261351968;3.699152912;3.948863579;43.69165588;50.50647163;110.1804764
1;-2.561677925;-11.00875845;-11.17754732;5.700374333;1.50119854;3.963818366;11.91802142;-3.126575446;-2.701765092;75.53529884;74.33672011;196.3549816;11.91802142;-17.41597129;-16.5026152;-54.82378488;-75.83273266;-133.0532188;4.991645817;3.664102807;2.418220577;27.03385268;32.52346027;123.4194609
1;-1.717199344;-9.503034102;-10.70068241;-9.641673336;-0.36861866;-41.69419653;15.41928984;-3.494744554;3.670855752;77.05302795;166.7790296;156.2400799;15.41928984;-16.22516335;-26.20006966;-135.373807;-95.96333564;-156.7350709;6.194805887;3.180276744;4.978891067;37.054587;55.3587491;91.30814352
1;-3.941289689;-8.779699082;-10.31049652;10.47250562;13.19955119;50.28545954;1.99056109;-2.411679839;-7.393520098;84.1641823;120.6635035;181.9584092;1.99056109;-16.17861826;-17.90551636;-63.26504206;-68.03754519;-113.9747136;3.923199824;4.033586983;2.381744785;32.54690561;48.12950097;109.6533262
1;-3.349366323;-10.82615607;-11.01159868;8.912283433;6.912363872;-11.36546801;8.806630812;-2.6403566;-7.228649376;78.2146963;47.28124503;187.0429335;8.806630812;-17.29112577;-14.27795827;-40.01897655;-66.24832187;-157.9357168;4.027760069;4.181826759;1.616867961;30.14382042;30.23554735;127.2687396
1;-2.038941402;-9.560393739;-10.39529231;-8.603277091;6.736767266;-28.22627206;10.63221929;-2.361753736;-0.422150905;35.53355436;159.329214;171.3332114;10.63221929;-17.01960357;-20.44568456;-116.4165211;-108.0489721;-129.9802605;5.029757785;3.777094088;3.409722006;29.64178764;57.70303215;90.64837112
1;-2.724570214;-9.667982406;-10.49818739;17.17896447;11.83839839;29.37829151;4.189298112;-1.783545751;-5.611143533;84.98769806;119.6247062;192.6516737;4.189298112;-17.462107;-17.41955964;-13.02653116;-86.4921885;-160.3505516;4.383131538;4.612522818;1.685163118;19.45251477;51.27861789;130.6857409
1;-3.502887419;-9.701364867;-11.310808;-3.121106367;-12.1351124;-39.43363537;18.80349248;-0.895778792;5.057498061;49.45428014;87.78450461;165.9794409;18.80349248;-16.23925219;-26.62580232;-147.798865;-163.422781;-133.3513677;7.476269691;3.135355405;5.079959403;39.24762405;58.39700647;85.9411216
1;-1.139288614;-10.05817546;-10.48505144;-2.395878721;7.012425282;21.9483181;6.045483897;-3.586407255;-1.371578251;66.04786263;104.6418959;186.3345971;6.045483897;-16.58873953;-24.04836244;-112.5718034;-131.6824981;-141.032026;6.287666275;3.60387337;4.035199705;33.88565176;53.7173672;110.210957
1;-2.606247311;-10.80939809;-10.57687029;14.19250738;-9.811388302;43.4332681;3.88588147;-1.733464177;-8.101069121;73.96947541;71.71223634;219.7591239;3.88588147;-18.69694581;-15.04143948;-37.9842374;-163.7333868;-139.113961;4.388036654;4.280244953;1.829228356;22.22948571;52.18119114;138.0598413
1;-4.168650233;-8.798063938;-10.62876149;5.363338023;18.7142267;-71.8823684;19.60465658;-0.897440543;6.023151616;84.86703649;179.8089038;109.4176083;19.60465658;-16.97921398;-26.16195864;-148.5268856;-128.3171158;-164.5976892;7.173383625;3.633543053;5.057828949;45.39117254;69.9891926;68.89860698
1;-2.313951929;-9.927919179;-10.45539667;-9.009187027;2.493790071;37.76046539;16.70993502;-3.015149664;3.145808969;56.26057891;134.2204164;187.8114753;16.70993502;-17.07128392;-24.56102353;-128.3353857;-125.3959072;-149.2952179;6.875555774;3.966524907;4.898617348;35.96063176;69.6804291;115.7675712
1;-2.609765767;-10.8597676;-11.04312819;9.115459985;-9.646625511;20.34054731;4.113319228;-3.264938202;-7.278603648;75.15309165;35.46436652;193.6736556;4.113319228;-17.25125488;-15.62994465;-34.33832261;-117.2505111;-138.127027;4.094712127;3.155486697;1.887215798;23.33759037;32.35575901;126.668133
1;-3.071543767;-9.401604735;-10.83602164;0.908153056;5.869451809;-65.0498138;8.449059296;-3.055645809;0.471893131;70.24385474;133.2172406;43.9354628;8.449059296;-15.76546048;-24.10098713;-107.1829778;-90.69362983;-154.3774687;5.372750927;3.04870909;4.349477006;31.08240218;51.26302555;60.70747934
1;-2.603508992;-9.071789327;-10.32101775;4.538318643;12.08085284;48.92391084;11.26558051;-2.79815351;-0.572564071;70.65356612;164.0131953;191.5425254;11.26558051;-16.43019572;-24.70573699;-124.8997734;-75.92680294;-142.2629365;4.766589651;4.359132671;3.721340237;35.94469617;56.24825046;109.945399
1;-2.961164762;-11.27553385;-10.88287092;9.787682258;-1.893721467;10.00540302;5.583217742;-2.508062269;-8.227326896;73.75464494;58.78547598;200.1079842;5.583217742;-16.30759234;-13.98224563;-18.02382377;-58.41006642;-141.6079309;3.227186589;3.226326843;1.469176444;22.74361112;33.0644165;141.7936343
1;-2.360623324;-9.522635558;-10.75533408;-8.267018112;9.670444122;-51.41183599;12.66934339;-2.611398306;-8.892902825;12.251437;132.0109103;177.4976996;12.66934339;-17.69918115;-15.23528953;-67.37921434;-73.46751436;-144.0555647;5.013451092;4.331791247;1.371635502;20.19445758;46.40251981;96.05068583
1;-3.521472104;-9.084372389;-10.42374905;10.19290038;18.24920563;48.17407169;2.285944544;-2.6775864;-7.862282711;78.70119072;199.4335056;200.2771764;2.285944544;-15.71830646;-19.83638036;-35.08637626;-67.90812956;-157.9880766;3.79170671;4.462089519;2.395822397;30.88248648;71.34285066;125.3363643
1;-3.524187387;-9.693950039;-10.968285;2.189496092;-9.510732497;-31.64038366;19.57426861;-2.399454241;-0.028256777;65.24715596;110.1140337;171.1639267;19.57426861;-16.0616938;-23.39998557;-119.938884;-121.8433273;-141.8857527;7.06171707;3.670289237;3.485584833;35.01013909;53.23388407;105.590838
1;-1.794333142;-10.11505087;-10.68507767;-0.269534451;8.439641284;1.587071842;16.53368407;-2.384832011;-4.840375456;22.4554912;188.590535;179.8576251;16.53368407;-17.59259504;-18.88790936;-82.57340418;-111.8178807;-153.2089574;6.355778405;4.557909173;2.393124065;22.53693406;70.30250664;120.6179326
1;-2.471689239;-10.44805134;-10.45006488;8.67445176;-6.801763518;42.78704966;2.924552297;-1.052089411;-7.707731437;45.39987709;70.18040298;196.3892849;2.924552297;-18.4223207;-15.22331883;-47.70910805;-111.8539932;-152.9470199;3.923851741;4.999951147;1.832979684;21.66954148;44.62926511;131.0605059
1;-3.853050752;-8.95506574;-10.96050165;2.844579875;11.50408714;-74.26516139;16.64430609;-2.184884742;3.328232725;68.5133867;103.35065;82.19168901;16.64430609;-16.93986828;-25.24838404;-143.1825662;-92.68142156;-145.1767906;6.387802234;4.075897184;4.599344107;40.62701263;48.43617513;63.49749042
1;-2.243805093;-9.872780197;-10.85729269;-0.987201477;8.566585419;47.71229104;16.6854187;-3.007370271;1.664703481;54.58307869;208.0792243;204.0192648;16.6854187;-16.92992196;-26.46342166;-142.9111846;-129.5516493;-168.453098;6.711747992;4.514560568;4.193427737;36.69137008;73.94974355;126.4925822
1;-3.041065402;-11.07015362;-10.42581534;9.572607718;-10.36935419;28.91565935;3.922066717;-2.36880293;-7.232657921;82.87829593;54.99464593;195.2901179;3.922066717;-16.2654914;-13.83101361;-37.45360458;-70.07341368;-137.6823445;3.494293249;3.441826993;1.69161491;28.57119427;35.49345383;132.759379
1;-2.414772119;-9.000941315;-11.03775894;-4.425111268;17.57114207;-83.45944372;15.80159525;-2.152801273;4.026948062;61.558276;152.0228084;56.25182301;15.80159525;-16.29824803;-25.26512767;-133.9731128;-144.6612269;-171.8073047;6.502219852;3.370181011;4.784534085;35.86671789;64.59532299;56.58318615
1;-2.558882879;-9.753114466;-10.83424797;5.725675034;0.870052404;55.91667407;16.27585009;-3.603424617;0.907649199;80.1621079;142.2953167;224.8047554;16.27585009;-17.93061055;-27.73410514;-122.3813791;-133.7369799;-158.698474;7.102580347;4.337997183;4.981402765;39.87014918;69.41657215;123.1181119
1;-3.187474613;-11.24599489;-11.27101295;8.449914869;-9.488383197;16.20053821;3.674977354;-4.14555416;-7.808755294;78.65373842;76.755449;210.4236767;3.674977354;-17.62069043;-16.25823469;-37.61551203;-115.7440671;-128.4507454;4.583138602;3.261268462;2.134376739;28.33965885;45.19559121;137.2604999
1;-1.458013775;-9.411728451;-10.86630143;-6.02155003;9.13739852;-69.17935001;15.02231933;-3.813885155;0.86978923;95.61879379;129.5293951;115.7654577;15.02231933;-16.64807447;-27.59557133;-130.2027738;-127.8487885;-164.5031627;6.435502031;2.953053342;4.854484867;36.95039275;59.70422551;69.09124885
1;-3.503172249;-9.633469005;-10.42705333;8.73372971;12.04826356;53.44418754;5.848597805;-2.428697977;2.173557443;85.38782838;145.437439;217.4515928;5.848597805;-17.30132788;-24.43600634;-119.3615342;-122.2288314;-182.987977;6.271752139;4.509071644;4.559449731;40.07782573;59.85030998;125.2478583
1;-2.664916322;-11.24294081;-10.87814449;8.234025459;-4.720779543;12.23219275;10.16810364;-2.458056974;-8.105555634;74.66300709;61.94072574;213.5421028;10.16810364;-17.77391338;-15.85643001;-34.72315332;-132.7341471;-135.788412;4.757671354;3.616460779;1.819584979;26.62062897;42.98219137;137.4079621
1;-1.646066673;-9.373057468;-10.9106423;-6.177336957;3.969074018;-52.90929426;14.05432991;-2.793890016;5.499222785;84.07645691;191.750511;163.9157648;14.05432991;-15.90955003;-28.64313437;-173.456548;-139.7064615;-199.088337;6.783100277;3.694154058;5.628586159;42.52618414;71.88114532;90.29248516
1;-3.549529335;-9.127592305;-10.72575777;8.860896337;7.333081955;35.05558486;7.377872591;-3.015640497;0.810532624;69.74422205;149.6405286;190.0174189;7.377872591;-16.45672042;-23.54850507;-115.8336647;-173.6145435;-165.8383952;5.527547244;3.950470418;3.91086682;34.48507386;64.45444651;118.3684657
1;-2.669374069;-11.07030663;-11.23151463;9.442068798;-5.868292973;1.507694368;11.0898636;-2.691579491;-4.919917947;78.61538048;59.38046355;220.3505489;11.0898636;-18.68957476;-17.914719;-56.02562866;-102.3933293;-130.4980569;5.332530688;3.602258318;2.481674815;26.29670065;33.99807608;132.0170839
1;-1.284821289;-9.827342956;-10.86442553;-3.969455662;9.39037173;-38.10444221;13.97242028;-2.467087202;4.346173704;69.25127827;162.1000839;193.4151656;13.97242028;-15.50357982;-28.75325734;-172.4386274;-171.2114215;-191.2795973;6.130863643;3.61873758;5.149753649;40.89859332;67.51095677;107.1952564
1;-3.31808822;-9.382861371;-10.93142249;5.972753548;7.213320033;36.23300701;6.104053471;-1.839865378;-1.905104076;82.92054679;177.9872642;192.9324743;6.104053471;-18.96785142;-25.25667306;-111.8474856;-96.23377103;-131.0055258;5.382148695;4.429202193;4.185196752;37.07005371;62.91036926;117.7427971
1;-2.743720428;-11.0209182;-11.0598746;7.522981568;-8.420366745;1.649111477;11.97029842;-1.485294307;-2.115367776;70.32276791;80.89004292;205.3433252;11.97029842;-17.66552321;-15.02904295;-31.2723457;-144.3636168;-127.0783981;5.146651353;4.103406311;2.051106743;22.88778287;54.34518551;119.378299
1;-1.513004468;-9.494247407;-10.86419652;-4.936873107;12.29907013;-35.2422673;16.26071105;-4.16540305;2.738289703;79.77225305;133.3791934;178.4660777;16.26071105;-16.53592472;-25.74220445;-132.4377907;-100.2894222;-154.2649587;6.081666882;3.03595942;4.721225057;37.90946355;51.75225353;94.41784225
1;-3.092380221;-9.277029475;-10.25769252;16.09134215;10.46938618;39.97322255;4.330522959;-1.209382125;-6.341998962;93.04407997;189.586249;191.4377434;4.330522959;-15.72707535;-17.24240397;-33.94142566;-114.6439915;-176.0364102;4.120340332;4.289070067;2.148836208;31.44300656;71.184719;129.4561478
1;-4.235894876;-9.854082709;-11.35373787;-1.69934318;-16.87746644;-36.70601076;18.69285836;-2.842561707;1.104049394;57.74638317;136.2516354;188.8344254;18.69285836;-15.99116962;-27.58820412;-160.9225632;-142.4531194;-152.4671267;6.956271014;3.254908771;4.206456518;39.30787667;51.12397328;108.0900109
1;-1.25176753;-10.33098506;-10.66457555;0.629708048;17.15244668;1.384980471;8.482858351;-2.348442256;-3.035636741;32.28934259;126.1036779;212.942826;8.482858351;-17.13028818;-20.48179708;-97.42665288;-49.46964618;-152.3870008;4.565254763;4.167986489;2.677990541;24.61781873;40.23813579;130.3321661
1;-2.674796479;-10.81313573;-10.58377135;13.96725178;-5.498077627;52.78915066;4.616439425;-2.152342515;-8.294265021;62.42649847;52.20678728;228.6981598;4.616439425;-18.6653533;-14.49392505;-9.082243253;-44.05588977;-140.0922856;4.165554827;4.644699817;1.401317972;19.22234749;17.91404059;143.3734468
1;-3.724770621;-9.026950618;-11.12890362;0.851669667;18.46641956;-76.07798162;10.7824587;-1.384566106;1.597844512;70.30546592;152.6459053;114.7535678;10.7824587;-15.84100609;-28.15545748;-153.824367;-97.40556388;-200.9183133;5.950105872;3.348382468;4.733731456;41.75013851;54.91991871;68.57336081
1;-1.99596823;-10.36814028;-10.64763508;-7.69265666;2.034912513;47.72862531;7.823595218;-2.860330982;1.885635333;59.27120089;124.6918586;194.4943307;7.823595218;-16.55271902;-24.51643119;-148.278442;-119.1346721;-152.1922973;4.781681294;4.160798351;4.448798068;39.39021459;62.53064561;116.6953483
1;-3.102720269;-11.14578747;-11.23426238;10.34786498;-10.69821417;14.59013064;0.033471192;-2.789804963;-8.146662637;64.64416488;68.25728076;217.9107864;0.033471192;-17.58329641;-13.94648126;-42.5476587;-74.89239308;-142.8579721;2.612575639;3.891260173;1.485584927;26.82533497;35.30180762;139.3816847
1;-1.491817421;-9.494196659;-10.92847666;-0.649607029;15.44767836;-57.95615731;14.20564431;-2.09800432;4.604468756;69.67676179;161.2533115;168.650227;14.20564431;-14.5642149;-28.66893341;-143.6602802;-97.4240508;-169.8016847;5.819431059;3.525312823;5.046895253;35.98662654;55.46364126;84.83505541
1;-4.016034025;-9.378845162;-10.61457195;0.993948502;5.282753015;50.36228327;4.687403267;-2.737845267;-2.253666706;66.41023757;123.3019134;184.3959555;4.687403267;-16.53338959;-24.32900555;-110.5624272;-104.8332295;-141.9691994;5.390076354;3.974982191;3.91196765;36.86035016;59.40870607;108.5861755
1;-2.72112187;-10.34699851;-11.27308878;11.4801253;-4.477784507;-14.15391229;13.90911055;-2.196844728;-9.25237199;68.52570087;61.96427147;193.6772834;13.90911055;-15.83603869;-14.63924545;-19.04512771;-78.50129981;-162.9477705;5.014413382;3.800403492;1.186822041;23.12307002;39.54739691;121.2213676
1;-1.343056736;-10.02139837;-10.66451923;-1.632551136;15.33901836;-22.86326981;10.86296663;-2.468915824;5.409566357;48.86235164;129.1200899;195.1472761;10.86296663;-16.54057676;-26.30020551;-153.6919449;-128.6422799;-157.4830116;5.492842012;4.344883341;4.750118825;38.01942487;53.75204697;107.6884076
1;-2.502123238;-9.374591196;-10.69004453;6.041363124;12.84749305;31.61013749;4.830739684;-3.846617307;-8.611242589;63.62314533;119.9905063;153.5653416;4.830739684;-14.11591782;-18.65436153;-35.73743701;-64.58198015;-132.2405888;3.778374391;3.506757521;1.849751186;28.51142214;45.96981764;107.5407726
1;-3.19880765;-10.80280389;-10.74825434;5.073022894;-9.448565135;0.505964748;7.458196938;-2.774420467;-7.710050771;53.86968004;38.40107415;195.9951193;7.458196938;-16.85837271;-17.59634944;-74.60583507;-97.54564828;-130.3104387;4.002024784;4.165342324;1.798468749;33.46994632;32.28265338;119.0171194
1;-1.716312059;-9.588333637;-10.77823622;-4.97789554;2.076558569;-40.03260691;12.40215628;-2.426175919;3.054489824;65.98485501;173.948966;170.0584143;12.40215628;-16.79505793;-26.37737629;-155.3418467;-136.1359647;-166.7962586;6.331385211;3.845698668;4.434182274;36.68368437;69.12736976;96.36554655
1;-2.932747084;-9.373116226;-9.164714421;15.75653614;6.590850385;25.77655306;2.287295309;-2.426963095;-0.269673468;68.6009788;95.48511675;149.5119975;2.287295309;-18.0323238;-16.58369204;-97.28828728;-59.35566406;-115.4576411;3.625391845;4.034331737;2.732563712;35.66613267;42.02331338;93.95687619
1;-2.395449251;-9.284059627;-10.84806055;-1.909895569;13.96641494;-0.483320399;-0.92086897;-7.829631895;-5.394623567;20.8752477;48.39939681;25.81464275;-0.92086897;-11.47614748;-12.92188293;-43.44913819;-41.85102334;-36.75040732;0.842526826;0.688776093;1.310715623;16.181806;29.56685388;17.40932625
2;-1.87566616;-9.577197669;-10.33433704;5.707434494;-4.399102856;14.6106359;-0.327800987;-8.891943024;-8.639549911;25.00881083;12.64832391;131.061729;-0.327800987;-9.977075376;-11.55058759;-0.966747191;-20.32390741;-16.2349918;1.578435874;0.238240633;0.554185563;5.68029464;9.784814769;40.79259631
2;-2.408969298;-9.365334901;-10.19328356;-4.989645761;0.774114738;-8.885749746;2.803782479;-7.807292827;-6.207982107;22.40104301;54.20165582;131.3672436;2.803782479;-12.16552289;-13.10121547;-31.70259932;-51.34659592;-76.20346273;2.696206828;1.123441372;1.51504292;15.34225027;30.38089056;45.11755096
2;-0.770834426;-9.477195808;-11.25761348;-6.092038373;-2.615956864;-15.85633111;0.614984008;-8.727910955;-9.222593519;14.1034674;40.27701847;0.606384077;0.614984008;-10.45271647;-13.44867003;-17.54051218;-27.88224713;-31.82756056;0.636641583;0.448449421;0.881948549;5.393354629;13.46422035;7.045558075
2;-1.519017932;-9.771854767;-10.93552587;7.771842693;6.766540343;37.30441584;0.020233643;-8.211350745;-8.502076911;51.39030378;45.05017216;138.1188682;0.020233643;-12.28763148;-13.90610864;-45.98475892;-43.67286745;-22.24701487;1.386317605;0.94317001;1.244509938;23.58811141;23.25863408;53.78148804
2;-2.585691031;-9.119310441;-10.38731139;-8.05749966;-9.191041335;-22.82131417;-0.415518864;-6.961508439;-7.049145293;9.382902792;73.2379111;54.66172987;-0.415518864;-12.09767271;-14.00044499;-40.4684183;-73.03716552;-77.71198067;1.961352181;1.345746658;1.659177434;12.11477224;39.95015739;33.8573532
2;-2.014068847;-9.632280864;-10.53965276;5.795921495;1.406066464;20.01048602;-0.193639192;-7.469704739;-9.553280729;35.10321589;54.57168154;72.80671208;-0.193639192;-11.51106312;-11.94494126;-10.45136912;-34.06505495;-50.0669746;0.949107438;0.979484472;0.672553306;13.78771484;23.78366414;43.56826422
2;-1.553596724;-9.364587873;-10.53445708;-4.94693859;1.005915537;-29.6456897;4.931854634;-7.356293005;-7.383785592;23.08746636;53.06953099;24.22908099;4.931854634;-14.33775493;-14.37676734;-42.35353415;-68.69842236;-82.78407702;3.059431649;1.606840684;1.709799361;17.56225099;35.3926138;34.11111407
2;-2.199088597;-10.05562651;-10.2542458;4.74648123;-0.24420828;39.99242038;3.043984038;-4.497314637;-7.026017342;73.07893109;68.43813558;159.0759642;3.043984038;-17.37208682;-14.97606994;-52.22945201;-91.55615223;-83.29129623;2.685446839;3.936325752;2.108557578;34.54535578;36.50990639;87.69783248
2;-2.165450598;-9.913975958;-11.30642375;-3.285156999;12.52689908;-55.45019294;4.370031866;-4.0611385;-3.921579407;41.3103265;82.28045764;57.15284439;4.370031866;-14.25295095;-20.7789369;-63.78734305;-117.1750299;-99.80520371;3.181364382;2.749535134;2.886884629;23.41485953;45.30606476;40.78906208
2;-2.41653952;-9.282709977;-10.36768355;5.251879375;10.06053775;42.34309159;2.142247551;-5.499106257;-7.780444879;74.39677137;70.82677724;169.1733476;2.142247551;-15.30422349;-15.21299256;-65.19505532;-90.57102165;-103.5502276;1.823199762;3.146840919;2.041048426;38.70297323;47.79121171;81.4342713
2;-2.074828495;-9.537593266;-11.00107514;-6.480225888;-4.71147594;-51.53533382;8.8210315;-2.534719955;-3.353760284;53.84658262;84.66472962;57.10412915;8.8210315;-14.93167236;-18.80309782;-66.48788016;-169.8726794;-108.6122315;4.524305806;3.32105275;2.747765258;26.12459395;56.43458063;44.5753819
2;-1.475511456;-9.674439385;-10.76935848;-1.356114895;5.653562195;32.16915011;15.8013358;-1.471259012;-2.285041446;64.18754221;95.06721962;138.776743;15.8013358;-17.82491852;-19.16416892;-82.95786978;-186.4804897;-104.285045;5.560312596;3.228638489;2.622275571;30.21432351;66.67910955;83.27204897
2;-1.704444481;-10.13163988;-11.34544795;7.354185377;7.991457828;12.58958837;7.919731406;-3.714211793;-5.729465474;63.33354952;68.3548366;150.1758235;7.919731406;-16.53758364;-15.57689903;-90.8331026;-96.61346124;-111.1732141;4.256155638;3.131480412;1.947731616;35.78506294;40.40714084;96.27798561
2;-1.43740463;-9.654101601;-10.48116438;-17.5722262;-14.018161;-23.73861954;12.7817508;-0.961107051;-2.4273103;27.49506678;95.54643639;141.6541674;12.7817508;-15.27822071;-19.52210053;-84.44363915;-171.9883618;-114.820857;6.388651154;3.880775446;3.554673431;25.73417522;77.73755346;78.78143589
2;-2.187606195;-10.1008944;-10.44279456;11.0613272;15.21905939;41.37527004;3.524673421;-4.319322002;-6.067549008;46.68055588;55.86553974;115.2247929;3.524673421;-18.0307993;-14.56766626;-49.15419747;-66.56143516;-103.092768;2.174818158;3.898264022;1.847745161;29.17936962;32.26892303;68.35003433
2;-2.108797741;-9.529739585;-11.01411798;-6.880163925;0.085782234;-63.69487905;13.32038258;-1.805113661;-4.877007043;52.55060956;75.24379805;37.9950086;13.32038258;-17.41856641;-15.25147573;-60.01061444;-105.1801955;-122.8135102;6.50596431;3.731924498;2.402757236;24.8823968;53.05477576;41.91167484
2;-1.863739167;-9.224552066;-10.35408614;-0.086521815;6.218842198;41.68249882;12.04531782;-1.139847469;-4.170788835;84.11923144;77.65300218;158.2697056;12.04531782;-18.14961173;-15.13247236;-68.42924006;-115.2616978;-114.0589265;5.086962844;3.492343064;2.244856463;41.34973661;53.81028881;86.41805241
2;-2.513473076;-10.51503063;-11.09849558;4.197035766;11.44257747;7.255656945;14.79868216;-5.281359696;-5.319785236;86.5357322;97.52280818;176.2456794;14.79868216;-16.88673696;-16.12114581;-64.1605445;-85.08349721;-114.5983907;5.655544269;3.301379462;2.287911689;39.65141184;45.45621706;106.3380326
2;-0.652009114;-9.941459596;-10.67285165;-14.49691947;-3.299288483;-35.7611141;13.8414512;-0.501140462;-3.120234471;59.94833344;173.7162791;145.8094487;13.8414512;-17.35139268;-17.94966022;-69.3784258;-196.574643;-119.4149809;6.685789529;3.143679857;3.324475743;33.49494401;83.47921698;72.84306571
2;-2.845836176;-10.17568576;-10.35908036;7.175144452;14.58316907;43.32931558;1.77213625;-5.453223614;-8.297033838;84.54511769;112.3554824;173.5403123;1.77213625;-14.7306525;-14.27757897;-43.82379554;-58.04319532;-117.8897372;2.9001869;2.671805321;1.66319956;34.52464274;44.65531699;108.4213444
2;-2.282338198;-9.580645193;-11.31387666;-9.433969132;0.174759209;-51.00637583;11.33308333;-2.229715669;-3.082282309;58.10010864;128.9275179;70.02006524;11.33308333;-18.07198762;-21.96997756;-82.77632034;-128.0194165;-146.0818143;7.277680562;4.612824689;3.61948503;39.00805148;77.83384741;60.49417866
2;-2.229422746;-8.673412526;-10.47560567;-2.784041067;5.79430476;37.69273529;3.125549434;-1.799375782;-5.152397075;45.48958183;92.38412855;141.3247112;3.125549434;-15.69543034;-16.66780576;-66.86870005;-93.63693484;-103.7047407;2.423992467;3.716709023;2.456884307;32.24055096;50.5321593;84.24894016
2;-2.505575273;-10.40062428;-11.18413239;8.729940255;4.32574254;-3.951752018;17.16313981;-5.253236221;-5.455079817;77.39075089;122.2689486;163.8108333;17.16313981;-16.12703944;-15.39043536;-67.58617198;-114.7964221;-121.0459148;6.080015239;3.287324788;2.116720584;35.40004476;46.9561363;98.79743305
2;-1.533142348;-9.520249718;-10.30926174;-14.9908788;-5.03862206;-9.502608674;17.88003579;0.021909942;-4.336194804;28.96913834;123.9113059;145.5669309;17.88003579;-17.07459671;-18.73411016;-69.90167463;-158.1178041;-132.3750145;7.038576316;3.922052798;3.129383088;27.4857249;67.91235894;79.25831749
2;-2.928895784;-10.19758817;-10.64690553;1.569059121;-2.807781244;35.28642387;3.766560991;-5.498695316;-7.300942475;51.42571187;50.71033192;113.7225233;3.766560991;-15.83856187;-13.92043881;-68.33657141;-72.98035222;-104.7970945;2.467092484;3.382628016;1.811858064;30.70619666;38.48563089;78.4428613
2;-1.860566893;-10.06677399;-10.90901831;-5.395915929;13.27092842;-59.6370178;15.02759606;-2.990584894;-3.943101913;32.24096063;95.27700063;53.70725033;15.02759606;-15.3738245;-18.81496319;-79.34631759;-76.91067821;-106.8223069;5.653664962;3.216853719;2.804372525;26.75858015;43.59645928;39.46785874
2;-2.809696962;-9.047442115;-10.38788685;3.518911581;9.090768559;42.26942758;1.357623955;-5.065977243;-7.274008442;57.36465915;117.8078265;120.6975382;1.357623955;-13.9056091;-13.81618517;-69.33529398;-86.50515126;-52.5502859;2.598708577;2.614572761;1.951035059;39.11797364;56.70919056;64.97062748
2;-1.85077272;-9.426131899;-10.9400638;2.862187976;6.200483685;-31.35344012;12.68295796;-1.157056877;-5.191780764;57.00270564;96.59324067;116.953449;12.68295796;-16.18706768;-14.52571263;-60.93431297;-122.7440085;-119.3578713;4.480225183;3.781952492;1.922754283;32.20316642;46.55585746;72.39456152
2;-1.468509308;-9.898922746;-10.47761365;-11.73772323;-0.197587478;21.06939973;11.34432812;-1.464437078;-4.580164217;38.97112067;114.5332701;141.0322149;11.34432812;-16.50662408;-14.54919002;-75.0164004;-144.5926005;-87.89543172;4.889691927;3.180302339;2.353189955;31.44767567;61.33389076;83.52540555
2;-2.097866379;-10.52106026;-10.87848187;0.867178081;-0.746584663;20.03846175;1.907620899;-5.110964746;-7.574448161;59.31307959;78.14406398;149.2728503;1.907620899;-14.52564968;-14.99027211;-56.14055537;-77.46013287;-117.3541859;2.648106347;3.221003194;1.862004241;35.30932764;39.89559388;103.0116717
2;-1.221984014;-9.878392614;-10.72662386;-7.288281779;10.95953522;-53.7397259;13.63558214;0.330508386;-2.305147295;39.56187789;119.4598138;54.83073794;13.63558214;-17.57281023;-18.76825719;-82.55724717;-125.190085;-121.4135097;5.888587111;3.407598313;3.08804178;28.46956068;51.58305295;49.46451386
2;-2.222500258;-9.765239068;-10.66517863;4.338882769;3.483567832;47.61468745;3.864720392;-5.402212264;-8.096237204;64.20524489;118.1774252;159.1058667;3.864720392;-14.71458476;-13.79030673;-54.67241943;-85.28960976;-121.6491402;3.287780121;2.791529739;1.531864371;32.71538408;49.22716004;96.61896924
2;-1.867704169;-9.59724625;-11.03430121;-0.84809742;9.236231119;-43.38905073;14.46889715;0.394115616;-2.217722069;73.76775385;106.9675608;123.0443739;14.46889715;-17.20621124;-20.9338912;-92.16462023;-158.7974897;-147.4458879;7.452288333;3.674124517;3.386896026;41.98423241;60.48460034;70.61811386
2;-1.114023204;-10.10757318;-10.50878009;-11.46099019;1.302627043;23.12618855;12.77281418;-2.028847609;-2.468863374;44.83779331;97.54807588;173.9686827;12.77281418;-17.59467999;-17.17049997;-93.25655218;-133.1094262;-133.2044425;6.445379852;3.185224056;2.960369907;29.72279755;47.82871112;105.3523823
2;-1.247535103;-11.03535823;-10.88754653;-2.501550261;5.34489925;39.24936012;4.557810874;-4.86422786;-8.08459814;60.27162268;75.77781873;187.963516;4.557810874;-18.3885724;-15.58652024;-77.70629702;-102.4447664;-114.4212183;4.466347169;3.206939326;1.766869048;32.58722182;49.48296347;125.5863595
2;-1.662322834;-9.722866659;-11.1755525;-2.752802667;15.0030469;-75.02599641;14.33855502;-3.743604469;-4.370656066;65.21577401;77.63238982;31.80689027;14.33855502;-16.06575324;-21.14035296;-98.948552;-115.8616283;-159.5682537;7.041906645;2.718979068;3.139022105;30.56832862;44.6321594;48.42655722
2;-2.654813196;-9.490164985;-10.40881168;-4.801085023;-6.335700735;46.65033221;2.644678902;1.358652726;-5.126415434;62.96668877;157.5341943;209.3662956;2.644678902;-16.84764555;-15.49361709;-88.17528015;-174.3664217;-135.2670211;3.747444076;4.073778791;2.624679314;37.27823748;72.65157823;122.8044777
2;-1.697186195;-11.29650297;-11.1949683;-0.28950708;-6.658043503;17.27595707;4.578307851;-5.095206089;-4.039661494;37.23641632;60.51133439;186.4218406;4.578307851;-16.29496176;-20.1762057;-78.76725998;-105.950333;-98.22444245;4.134147458;2.970357184;2.749995857;25.3461197;46.16750404;114.0264629
2;-0.920190473;-9.740487314;-11.04495718;-3.189077368;10.08187784;-60.37315872;10.18613886;-0.593123912;-5.237359296;54.87937361;156.9732186;121.9777133;10.18613886;-16.18009748;-15.94130886;-73.19764785;-114.6092241;-152.6760212;4.718724236;3.768297536;2.593352425;30.89215271;70.7737198;63.70555795
2;-1.815337396;-9.527291559;-10.53948543;1.643883203;-3.296160797;44.55723455;15.66770893;-0.985344495;-4.56065579;57.3202671;66.32885095;168.8237945;15.66770893;-18.37995055;-19.60008657;-64.35399436;-87.20653727;-151.8972037;7.040407085;4.152924973;2.940110626;30.28117862;28.99496488;98.98775356
2;-1.714957977;-10.96654979;-11.30912392;-1.634062093;16.42383458;0.175417848;12.61021124;-7.015362887;-3.461748529;51.5855186;111.1625462;198.8088304;12.61021124;-17.26923248;-15.77850359;-76.70970765;-115.9278533;-141.9578352;5.654215149;2.843578622;2.206586916;33.57077387;59.33354134;122.4013811
2;0.089120457;-9.588987031;-10.77332905;-10.43785629;-0.15572521;-22.82088993;18.28645827;-3.061496971;-0.635052345;93.20250213;96.74990051;184.9217946;18.28645827;-17.15708238;-22.68311691;-114.9403251;-88.33527777;-203.2532768;8.571949307;3.139236268;4.168099328;37.36907877;41.96296318;107.2708754
2;-1.184557532;-10.33989132;-10.44669158;-1.454168256;-5.690696352;43.76200812;6.09852634;-5.379332386;-1.368302138;55.3752541;102.1322348;206.9121995;6.09852634;-18.27898677;-14.00408854;-54.68631903;-103.3469388;-152.9000061;4.810633132;3.278819769;2.349912791;31.42925944;59.24660188;117.6051325
2;-3.305681022;-9.933098217;-11.23697468;6.017253697;17.89577494;-48.06997325;10.32710496;-4.035286575;-0.986654704;111.5855637;136.3229209;138.4916828;10.32710496;-14.66012568;-25.48711859;-143.2313591;-129.6728313;-175.4052162;7.40263284;2.984503987;4.064852462;45.12857403;56.30604618;83.8453203
2;-0.163223808;-10.88652327;-10.56882763;-10.78159731;-8.653997573;17.23777417;12.12525805;-2.246291037;0.134961036;88.96478109;104.2084921;179.6645035;12.12525805;-17.14736126;-24.89896392;-147.8299102;-185.1830645;-152.4719175;6.472422586;3.711713681;4.204546091;39.5764287;62.05731334;111.168059
2;-1.871404349;-10.27486247;-10.53032002;-0.271671243;6.330187731;33.22439112;5.496671488;-4.386942327;-7.530428896;54.09661057;71.92188495;177.1223852;5.496671488;-16.90147143;-14.69083107;-53.24918372;-95.61614534;-121.4281017;4.249007335;3.380331344;1.689139283;28.90540475;48.42480012;107.0415966
2;-2.813175366;-9.46792429;-11.39045786;6.963517525;14.66628745;-40.43364669;8.7733503;-2.156166817;-4.307367188;72.95269827;112.5691227;158.7277379;8.7733503;-16.97498717;-19.8834957;-109.2792662;-168.0599929;-120.7396883;5.267855706;3.117623216;2.979437471;38.62686063;59.99178341;81.42620389
2;-1.10537107;-10.38576969;-10.68189887;-11.6998216;-5.933861052;4.195240518;11.13154881;-2.146265968;-1.614159594;33.6385058;169.5222474;183.5296372;11.13154881;-16.57378538;-18.40737989;-83.39444339;-172.6127082;-131.5023395;5.478744281;3.557698873;3.191120944;30.32586749;75.45144945;110.4596733
2;-1.454924877;-10.35499354;-10.56621189;2.948979748;-1.554514983;35.55455593;4.66945277;-5.751288557;-6.205308309;54.92493777;68.19004558;155.5770197;4.66945277;-16.31267915;-13.68132542;-54.73269796;-78.48782298;-108.9964119;3.608058485;3.252658091;1.760599312;28.41742019;35.82252144;97.15496744
2;-2.564135792;-9.899664747;-10.91009757;5.079031608;22.52780057;-55.09711143;12.91092906;-1.516971196;-4.774473946;76.73165835;125.8785014;84.87768303;12.91092906;-16.88600517;-18.80302971;-69.61563152;-111.3176422;-110.4319856;6.295838993;3.394668921;2.807773724;35.36172606;58.54837932;53.45919435
2;-1.40235835;-9.87237647;-10.55917782;-15.27666571;-11.81442009;36.66218243;8.631653295;-1.425658722;-4.793995566;57.82999525;110.1773032;158.0520632;8.631653295;-16.34863623;-16.70554336;-63.69935907;-112.5208104;-106.4190516;5.417258976;3.36648179;2.771236501;35.32033723;60.55380937;89.41167265
2;-1.639627647;-10.98434578;-11.57454505;-2.093452223;7.164978527;18.74501567;11.49417891;-5.033769214;-7.456183728;40.76701532;89.04462828;166.9410006;11.49417891;-16.73763959;-15.56463437;-57.1837476;-112.4598458;-106.6093563;4.179542816;3.465525267;1.753961508;30.18315629;56.0538897;110.7130863
2;-0.748305398;-9.888715188;-10.72751805;-2.014612274;15.10805771;-60.86192078;10.12189633;-5.087796489;-6.728376655;54.23734845;173.3791188;110.0455798;10.12189633;-14.06739435;-17.20398894;-59.95750004;-132.460341;-122.3482666;4.456977847;2.339747913;2.253923086;26.39207719;68.00447289;61.27377156
2;-2.191369487;-9.662345256;-11.08806009;-4.505897647;-8.063586321;51.13513101;7.633520227;-2.964391174;-0.109825999;84.56903475;160.1173213;169.7253304;7.633520227;-15.39147535;-25.2285318;-120.5186453;-101.0941681;-117.4227476;5.167774335;3.500765154;4.330480036;45.01667867;62.51627845;98.92073342
2;-3.037397272;-11.03622156;-11.90236769;8.894968296;7.484152949;0.449950005;14.7929884;-0.949197692;-7.014541398;53.59809673;99.33430918;221.6794192;14.7929884;-19.68426843;-15.75150717;-36.92956543;-116.9801937;-180.2717363;6.391020122;5.048422499;1.867189429;23.90919319;61.53375744;127.1445914
2;-0.965424305;-10.72406262;-11.00951052;-5.625185283;4.436985786;-40.40364509;16.78181522;-2.589525585;2.638305959;105.0414223;131.2403278;186.5965304;16.78181522;-16.36202574;-27.15015531;-152.1313761;-187.4518464;-191.2408062;7.955997735;3.947744472;4.887512998;42.17315582;64.53256759;108.1193887
2;-2.688626418;-8.955473389;-10.99419681;1.608970421;-4.301968029;35.50404514;16.92368442;-1.391647023;-2.962881086;95.02133072;161.4551302;195.8158594;16.92368442;-16.80405951;-26.40202683;-127.4233846;-211.4068232;-164.607654;7.265891337;5.114396644;4.298325761;43.54783825;79.80084831;108.4619163
2;-2.025776888;-10.8607759;-11.1995549;4.324051513;19.08893769;15.04987619;12.67797047;-2.286784175;-5.924345875;52.25161123;89.59429147;196.9593334;12.67797047;-16.21426754;-15.01067044;-72.61913494;-93.27853709;-147.4576426;4.719321714;4.383709432;2.011598461;37.10248053;43.9244784;120.9082806
2;-0.723019859;-10.52947735;-10.80335101;-3.747725327;11.25189016;-63.005086;11.43817436;-5.845102862;-4.531801593;69.91892971;157.5905294;121.9939176;11.43817436;-15.82442188;-21.05484714;-103.5650604;-161.6770232;-159.9207118;7.17046253;2.86167119;3.149843471;32.21969366;86.08871461;62.57199068
2;-2.872071992;-9.474200076;-10.91339832;-11.18211505;-17.00143057;54.28755806;7.169770666;-2.409876802;-2.402096721;107.8838802;229.2238109;204.3135033;7.169770666;-17.53315638;-26.40054886;-146.0132069;-164.6075602;-151.6798334;5.834423532;4.471164722;4.545471262;53.5112444;85.34576624;106.9623892
2;-2.254761608;-10.77322405;-11.34867314;7.244644637;16.96322575;14.38465534;16.4376187;-2.613543655;-8.172736238;43.04994541;107.8531634;200.1340095;16.4376187;-19.04616751;-15.30991826;-65.69181936;-87.85424759;-148.6186908;5.467930235;4.817336314;1.581696348;31.68556944;37.2817569;120.2629556
2;-1.085042682;-10.4103402;-10.73771568;-6.177537118;6.825103761;-58.89829341;13.98747985;0.616854457;-0.890755886;58.59986827;134.9458686;104.1651922;13.98747985;-15.30011483;-19.12413864;-70.52725842;-144.1953623;-143.8684414;6.844077309;3.65572133;3.761864381;31.86216894;79.48427039;69.6019052
2;-3.324363987;-9.50894065;-10.85225776;1.270642241;-3.996473843;48.69975271;4.610376446;-1.036804701;-6.09829772;53.68071855;123.4958117;199.9255607;4.610376446;-15.85275915;-15.76147387;-52.49323367;-93.68083008;-124.6337136;4.440239506;3.910570901;2.371845145;31.91517948;49.3023907;107.6498734
2;-1.130663137;-9.819119557;-11.0634055;-0.074759921;9.564387662;-16.43669853;15.40737083;1.13892945;-2.627212486;48.56864136;153.1576802;150.9694457;15.40737083;-15.42473964;-20.21811986;-92.32723891;-153.3053815;-148.7151352;6.949589579;3.828312681;3.080598671;35.24221511;62.54500209;98.6418298
2;-2.427590258;-9.370726776;-10.44881399;-13.70568763;-2.028485251;5.886523157;11.21521483;-5.262404855;-4.719385123;40.06412338;111.765193;147.1856143;11.21521483;-18.54101198;-16.38652908;-65.07112854;-77.05512589;-120.0210768;5.461811035;2.946746233;2.954944429;27.73973437;57.15570557;87.46461697
2;-1.920589265;-11.14870142;-11.38487766;7.917871811;-3.675455331;34.69916954;4.138806502;-5.209846015;-8.767823279;58.18614185;88.44361563;216.1346684;4.138806502;-16.40112814;-14.29509169;-27.83111589;-120.3674977;-182.0060991;4.42100319;3.297002709;1.557225823;24.89874183;48.13699242;142.0535343
2;-1.68664045;-9.763911625;-10.96837257;-12.33139766;13.34461091;-72.51147169;16.97882304;-0.588422455;-4.847525851;39.49856028;140.1722163;59.10021441;16.97882304;-15.02408605;-15.97050836;-76.73320694;-127.6103549;-147.9980886;7.931136565;3.764748111;2.693383221;27.75802098;66.82319229;52.11634784
2;-2.801531246;-9.319530537;-10.9702172;1.394563503;0.192509562;51.93253866;13.89499145;-0.563901026;-3.495401733;62.41301636;96.5285259;201.0355687;13.89499145;-16.61398535;-21.17386953;-94.19869242;-159.1008877;-139.5254459;5.97174367;4.081979174;3.265145379;40.54263421;61.33430614;111.9411554
2;-2.204777805;-11.12287039;-11.43850592;4.27047213;6.683104846;-14.26201409;15.66688592;-5.748491255;-0.826158273;57.57590331;102.07062;207.3241614;15.66688592;-17.56953785;-19.68648813;-67.18967369;-129.5545447;-158.6749306;6.324426449;3.244286116;3.026271206;30.07938988;54.18619907;117.6826565
2;-0.021039377;-10.29167045;-10.62663213;-10.85720777;-7.7653317;-18.01860164;15.25130329;-2.991117076;-4.686218656;58.22313676;75.74842724;195.6407578;15.25130329;-16.86357693;-22.47588362;-120.6888115;-155.5303837;-181.2178795;7.201122519;3.97684868;3.531793081;36.88149087;47.44764741;108.8829725
2;-3.801802628;-9.705950719;-11.09743392;5.651576618;14.62921004;27.99398526;8.616300806;-0.545020256;-5.592953543;93.62340008;87.6046648;205.5102648;8.616300806;-19.36887024;-24.15158554;-115.6003001;-99.11782559;-179.2352208;6.024093747;5.140645282;3.555878766;38.77012095;53.93457431;125.1117585
2;-1.748195983;-10.40601682;-10.92784781;-0.75694293;1.952843031;-12.76263621;12.31606407;-0.309892018;-1.922943498;47.7652883;81.05631081;203.3497377;12.31606407;-19.67215091;-17.14647149;-91.14243362;-153.2693497;-148.8408194;6.093134618;5.536972559;2.857390755;31.91270343;56.92616347;107.8215795
2;-0.254320088;-10.95730261;-10.7443559;-7.853622905;0.949183904;-19.58154558;16.38521297;-1.978141708;1.163717657;117.9149604;80.21885163;168.380517;16.38521297;-19.08190392;-26.37133119;-109.5285492;-141.1807244;-186.2602721;7.899633993;4.632037829;4.893545707;41.9677117;55.56618487;105.687791
2;-2.875749823;-9.258108884;-10.2011388;-1.349899;4.863376734;28.09085123;11.13302737;-0.315299825;6.475178751;145.8751642;150.1566673;202.9842636;11.13302737;-19.70597219;-29.12374121;-141.7699787;-113.4595973;-211.0104421;7.175905783;5.557938953;5.823943469;54.11963389;61.59918196;123.2467213
2;-1.60152429;-11.91235517;-11.31106348;1.633882687;5.778820357;11.09444107;15.10764945;0.224380222;-5.441567677;49.84088474;81.34696439;200.0587209;15.10764945;-19.98292695;-22.97201881;-82.01650757;-124.0111128;-131.8376642;6.64476591;5.136189188;2.919615834;30.64015387;49.11206663;125.6562829
2;-0.155132143;-10.04353245;-10.85109397;-4.937112579;10.7961181;-51.28561186;20.59127422;2.566890093;4.972115715;107.9184875;134.5193473;142.7548062;20.59127422;-18.32453186;-26.08483069;-106.1870906;-141.2800448;-229.1672892;10.02916918;5.587181668;5.235559649;42.49297031;70.23928178;101.4746487
2;-2.679720859;-8.52564165;-10.95092867;-4.806294274;-1.89334205;42.55403597;9.915135168;0.804109863;-2.669780232;88.04359207;137.7525288;212.2579122;9.915135168;-18.42737754;-24.04424241;-92.85954799;-141.9239387;-165.1520235;6.52234251;6.598719817;4.199722039;44.41525218;75.68169735;110.8200179
2;-2.381513562;-11.89263779;-10.91663812;0.975745812;5.058441596;5.709646289;19.17418199;-0.351125332;-4.150206916;50.13122039;111.9653098;186.3108145;19.17418199;-19.06027097;-21.04340685;-82.78985;-103.9573023;-175.7537544;6.763566948;5.93500206;2.953395937;31.53836224;57.79923025;124.6785004
2;-1.558302027;-9.045091516;-11.25587486;1.379359548;13.46477135;-50.86225153;11.18164444;0.875892751;2.505510567;101.4635492;129.174788;109.2746711;11.18164444;-18.66556685;-26.83766499;-127.0646441;-181.3104673;-181.0272888;8.096740261;5.499681791;5.208145832;42.43692889;71.19633639;89.45528081
2;-0.227300597;-10.9958959;-10.53600344;-12.35575324;3.332906963;23.48746531;13.01748212;-2.884935326;0.992392216;88.84425239;86.94160091;177.0952302;13.01748212;-19.51868226;-25.66163039;-129.0730485;-140.8014106;-150.4435194;7.447917873;5.272124707;4.96801481;39.51371234;59.19689257;102.7397918
2;-2.553706079;-9.851486267;-10.70313275;3.350527897;8.608236839;13.0246016;8.233063725;-0.191264654;-5.662656757;70.70986603;129.1751794;196.3635965;8.233063725;-19.69290744;-14.74569955;-45.96713312;-115.0659923;-177.5812103;6.008568316;5.644759339;2.043280944;33.53871401;62.67884913;130.8348101
2;-2.675121861;-10.92079781;-11.74905471;8.776176517;6.131202454;-14.38502597;18.2401295;1.228362441;-0.435514335;63.81795772;175.7631896;192.6132478;18.2401295;-19.36824907;-24.77826275;-143.1599295;-215.1718017;-194.1454597;7.500428989;6.644699141;4.163104005;45.69429467;87.16751068;119.3343545
2;-0.268469178;-10.72138802;-10.89683889;-13.39243061;2.173272507;-27.34166786;17.36521365;-3.330158395;-0.648803732;97.73207407;136.5492233;179.3928189;17.36521365;-18.52071709;-26.09355843;-109.316759;-177.3536637;-193.4903871;7.640989047;4.226353131;4.892622287;38.55841876;73.54963664;109.7377074
2;-2.846852486;-9.181689357;-10.33219099;3.470504682;-3.887256856;41.95639918;10.19088389;1.03671276;3.966875695;132.9457845;81.69038801;186.4196821;10.19088389;-19.85172463;-28.09747735;-153.9495236;-172.0267396;-183.9867328;7.492093502;5.808395108;5.461741661;50.22324347;63.08515718;119.1142304
2;-1.863996817;-11.68096677;-10.99231228;2.173636744;9.078276966;6.794407113;12.19901224;0.375627005;-6.030862915;59.36742054;88.55728664;181.2766548;12.19901224;-19.59840489;-21.41541764;-61.54070287;-54.05996112;-171.4019704;5.121421383;5.361605249;2.95831232;29.42790616;32.57311862;126.1786124
2;-1.588243981;-9.797393954;-11.16313104;-0.232933922;16.3982754;-61.72128199;12.38577949;-0.66007636;1.780457166;108.8776692;105.2031467;116.0726232;12.38577949;-16.22767706;-28.45329138;-149.0164879;-190.3946534;-188.6089167;7.192042342;5.032067454;5.174036232;43.69530267;70.83401774;87.36141695
2;-1.187617541;-9.46311115;-10.39549099;-6.943469328;-14.20595019;53.17092648;14.8067502;-0.196794528;3.340471103;126.1495289;135.678244;202.4499759;14.8067502;-19.77164557;-28.32111764;-162.3787257;-178.0158986;-191.3464309;8.461494105;6.265643226;5.555823805;53.43398455;71.44907101;120.0608271
2;-1.22883737;-11.56007934;-10.64559298;8.460165354;7.535721407;19.88204608;8.473892763;0.11265851;-6.909484367;51.18832479;91.52948216;186.3420639;8.473892763;-19.93784334;-15.23516543;-51.48122372;-150.4535573;-185.4713741;4.656800545;5.866664219;2.168676397;26.03910228;58.47737489;132.9678948
2;-1.880175097;-8.217037992;-10.82801644;3.858818042;10.24660485;-59.70676886;22.43191712;0.6584562;-1.070427353;55.35538959;101.1438465;121.476973;22.43191712;-17.23592086;-21.18000016;-61.91101312;-130.8075319;-172.02306;9.398423358;5.654452912;3.791897241;29.30046061;59.89729064;82.5667706
2;-1.656031927;-8.889813201;-10.5981623;-13.36576196;-5.327482728;49.46615177;10.33869702;1.884867511;-5.804510084;52.67800647;113.0794644;208.8221506;10.33869702;-19.29611795;-17.64847191;-73.6446174;-116.2320579;-143.4088858;6.83805956;6.544432169;2.898454728;28.27471072;67.06421026;103.8043717
2;-2.652069043;-11.7681515;-10.78397314;9.128770999;-2.528726994;7.695075764;10.41304845;0.473560641;-6.87658155;45.08887501;106.1565525;187.6722505;10.41304845;-19.72687707;-15.66671071;-38.88531629;-109.9357412;-180.0268528;5.62906188;6.381558343;2.361460565;25.84489189;56.43865841;127.8649371
2;-0.922183073;-8.929857435;-11.11893494;3.21603897;15.13322139;-65.76114409;21.52477496;-0.089718561;-2.761144839;80.83372889;104.66193;118.4826373;21.52477496;-18.71414123;-21.64997494;-87.70965908;-106.7339656;-175.4011047;8.90836534;5.667865281;3.565934917;35.59242817;55.52256643;82.10767352
2;-1.408859378;-8.926912093;-10.80901483;-8.0390494;-7.727581005;55.90750616;16.83552455;1.88629364;1.046182234;68.08415098;173.613389;200.5724842;16.83552455;-19.79172874;-23.31326601;-117.3375553;-204.0577425;-160.3021694;7.292389365;7.390501252;4.776956405;40.07394274;81.61689783;104.6323021
2;-1.649474178;-11.16124752;-10.61523467;5.570549531;-1.837163527;12.72625659;11.4413275;0.949734205;-2.990270794;31.3593816;107.2282947;203.0210339;11.4413275;-19.76557762;-15.50864186;-36.08436715;-103.9103163;-196.0289891;5.919883214;6.820769704;2.402457533;21.28669451;56.76379552;136.4760056
2;-1.639811971;-8.240656766;-10.51477021;-1.644397942;17.56389016;-63.17287973;10.60005223;-0.222784427;-0.927188621;133.2186109;114.8115892;111.0066575;10.60005223;-20.51338168;-28.69874709;-150.2088774;-85.65036903;-170.7168078;7.410392686;5.842172929;5.042215533;51.46192821;49.28734881;90.00118501
2;-1.741335289;-9.554468352;-10.84256381;3.787400432;0.413552203;50.9752632;9.685273186;1.770881132;-1.396125069;106.7046897;136.132595;191.9225187;9.685273186;-19.59651679;-29.84577368;-88.66142909;-154.1763111;-143.0743871;6.493559996;7.291838102;5.503583914;37.0312721;63.75753104;100.1226824
2;-1.912104387;-12.5041855;-10.81054543;7.818311965;-2.265300204;16.63656004;11.70282175;-0.507177116;-7.083988519;35.51560816;76.90658172;207.8446313;11.70282175;-19.64263415;-14.93736231;-64.90965772;-98.46987121;-217.587498;5.633624967;6.389185865;2.195749841;25.27920135;48.44046825;147.8304531
2;-1.719085279;-8.22252729;-10.55716899;0.136086127;25.59820962;-69.52850595;13.57681909;0.068179676;2.229967471;114.225983;88.17831953;81.23957928;13.57681909;-16.45374737;-22.49230388;-147.7421205;-166.650552;-196.3611634;7.982120186;4.956715616;4.425449924;46.06932263;59.42751077;82.73941846
2;-1.606824237;-9.812938082;-10.81040478;-0.705058636;-17.81340858;56.73631116;12.46250119;1.653800033;-1.007328333;98.76855095;111.7359062;198.0636558;12.46250119;-19.65758655;-26.84488393;-110.7280561;-173.814828;-175.2046326;6.948200643;6.516230117;5.108383608;45.90337597;70.69533842;114.1279281
2;-2.148250534;-11.81915107;-10.72295176;8.278590309;5.265711494;13.6118299;19.43609523;0.90895294;-6.536111858;46.46608158;94.15162844;192.7767088;19.43609523;-19.58988574;-16.30106971;-31.0044276;-100.1023959;-187.5157364;6.665119518;6.39174367;2.50970844;23.30287652;56.67721884;133.0869074
2;-0.790326954;-8.920380877;-11.1536596;-2.824788092;14.31630767;-64.07265133;20.65307628;0.354605842;-0.491702889;103.3454909;191.2782749;111.258445;20.65307628;-18.48645747;-25.92078146;-113.6972434;-142.6959154;-179.4174875;9.661945856;5.230918607;4.856308605;42.76229156;79.70962663;89.35640228
2;-1.840191417;-9.152341133;-11.01719911;-2.183465821;-6.138789685;51.24544728;15.5104969;1.09029409;-2.668625911;104.8713403;193.9584042;196.6767631;15.5104969;-19.78270589;-27.69159447;-139.1801384;-146.802186;-177.2456708;7.148290536;6.729679836;4.921383454;45.8763325;76.6792764;112.6689206
2;-2.401677655;-12.37140206;-11.00908326;4.476012195;3.803761626;15.50275834;15.76535279;1.733261466;-7.282359504;49.55906325;79.89383649;191.0799322;15.76535279;-19.82492523;-15.64196841;-51.33279485;-99.88686771;-194.4867064;5.960967414;6.33744019;2.202207076;27.29289267;54.03677008;130.5850565
2;-2.120225992;-8.620015479;-11.22837266;4.06165928;23.96725649;-69.33763372;20.86717206;0.334080564;1.547578281;99.16169023;171.4264444;98.05169126;20.86717206;-18.36120772;-27.74751976;-117.0663328;-143.2686801;-185.7270352;8.923443573;5.894259576;5.461736706;42.56354589;78.95205442;83.90001289
2;-0.499701058;-10.19916937;-10.79602318;-9.059397442;-7.066507816;57.73286313;12.56144449;-2.061123356;-2.945491093;96.90867552;92.83052169;202.1650023;12.56144449;-19.70905212;-26.04560543;-116.1085546;-195.2642492;-142.7723954;6.528206679;5.706493215;4.42927418;42.96710214;70.54423853;101.3739924
2;-3.210314259;-12.27859313;-11.10252681;4.883473064;0.31630772;15.8477136;5.315091348;0.844377477;-6.684885102;48.97855479;141.9075999;206.8152416;5.315091348;-19.66616176;-17.67531049;-79.62289678;-125.3195181;-226.4439723;5.134716693;7.173544227;2.84970617;40.61383951;73.36760813;142.8198615
2;-2.437472787;-8.353288345;-11.07261573;6.084015896;27.07281601;-69.01784831;11.14885858;0.947162103;1.75801067;137.981829;151.5313861;99.0042364;11.14885858;-17.3908076;-27.81176364;-182.1941457;-121.0180757;-200.3370291;8.737758004;6.007877662;5.117943252;54.26407978;62.8126688;90.19771694
2;-0.039852573;-10.82138649;-11.2467613;-8.735522774;-12.58210824;40.74967893;10.51259307;-0.554202752;-1.285377841;90.51112383;205.0275368;208.6077929;10.51259307;-19.70752989;-26.71456208;-96.2961474;-219.849287;-173.6286363;6.962442746;6.361177573;5.201414934;35.48022067;92.7401336;120.4057587
2;-1.88553485;-10.90642067;-11.14713994;3.835381398;0.369160759;20.09999731;8.939122866;1.52238177;-7.947323971;46.05568;104.1822679;195.0854473;8.939122866;-19.81408392;-16.23087973;-57.89686881;-98.1805517;-192.6954773;5.688861316;6.784674661;2.081967667;31.07153363;56.7048126;136.1755918
2;-3.485755415;-9.043626341;-11.56711711;9.526998789;8.944023556;-48.3514546;16.47112163;1.765732277;3.342843776;124.9329043;124.1244294;195.4856039;16.47112163;-19.04869305;-29.62733453;-153.7447876;-163.4408512;-192.6334293;6.901100569;6.661297975;5.816563868;48.84616325;71.5024416;108.7769072
2;1.625446739;-11.24969678;-10.30109618;-9.597370754;4.102426058;26.01663116;19.77315359;0.442745172;-0.013482699;104.8535852;111.1791228;197.7411008;19.77315359;-19.64045803;-24.83054759;-111.5608881;-102.651752;-214.6920361;9.109096108;6.521849111;5.667148178;44.3022007;55.81251856;125.3965957
2;-2.068104505;-10.34717267;-10.7781638;6.437629959;7.677445141;14.37674773;8.61596162;0.495894653;-3.688139418;48.18940435;115.7115985;205.6523961;8.61596162;-19.71228714;-16.15215038;-46.45751017;-129.4081511;-220.5435586;6.10659986;7.02290069;2.490366998;29.93023349;67.86445931;143.58483
2;-3.468083745;-9.491110625;-11.49797836;6.549455008;5.289757526;-32.80322259;18.55177593;1.883384395;3.192967002;96.19754985;162.4604585;206.3761594;18.55177593;-18.58163354;-27.30575617;-141.390342;-207.541788;-202.0864006;9.002013109;6.444510372;5.324530797;46.86504718;77.06378484;120.2824859
2;-0.012208464;-11.78692626;-10.5753234;-11.39794697;1.091985763;5.332266288;10.72010649;0.951956625;5.060946894;93.50069202;89.96868142;204.117225;10.72010649;-19.86171561;-28.59179949;-133.8217507;-131.87574;-173.7841128;5.664294531;6.648836028;5.682393615;41.3052003;54.9876897;124.0897668
2;-2.241482326;-8.706265373;-9.723412736;15.44445685;20.42303821;21.97108454;7.579164933;0.678494743;-5.731266051;64.69449911;123.1892633;181.3807558;7.579164933;-18.46794146;-15.57078998;-80.76337224;-108.3487365;-158.1657401;3.971660022;5.718755707;2.26877471;28.28448153;49.21594304;98.0049797
2;-2.246102895;-9.978653415;-9.451991076;7.690608283;12.55503537;9.381795552;10.39233448;-7.823707191;-3.056764535;43.19135253;146.3305413;68.74295839;10.39233448;-17.29823611;-11.84797094;-73.3528703;-92.6448658;-48.67275752;3.467006298;1.841754126;2.052771012;18.092988;53.33101251;34.214958
2;-1.750259433;-8.723787142;-8.133404077;-1.885609178;-3.816665748;-13.4497489;1.462051617;-7.390880054;-5.554122734;42.76140359;80.51081412;51.40128063;1.462051617;-9.883472721;-12.16215229;-35.97705374;-88.1859157;-57.65356701;2.480572819;0.782717562;2.259456316;22.71058665;55.29838659;33.9502986
0;-0.785414735;-9.432429084;-8.808084256;-3.855686584;2.994516086;20.30420814;0.134980765;-8.0078482;-8.127816363;20.71193004;23.80385379;134.1357324;0.134980765;-11.58476034;-10.57379973;-62.88867585;-15.88893837;-2.008351607;1.153873297;0.619978718;0.753704931;16.59397007;7.751748913;38.70337978
0;-2.449131992;-9.429599638;-8.975977609;-22.83199857;-2.813564441;-7.448853064;0.568192011;-7.158881424;-6.379511765;1.766989864;74.97245471;130.6310898;0.568192011;-13.23356144;-12.09368738;-65.92926128;-46.46798838;-72.81734185;1.660841894;1.534450478;1.654895356;16.53492654;32.7306479;48.31780381
0;-1.332771758;-9.514689218;-11.7234606;-1.963991749;-6.456480437;-1.888606529;-0.273717424;-8.605475901;-11.04707241;9.789654947;21.87875558;6.185010233;-0.273717424;-10.15670121;-13.39041939;-21.52473781;-50.89033721;-9.553153682;0.467124996;0.323217868;0.497861256;8.581511785;18.90518229;3.665862609
0;-1.665311598;-9.613045201;-10.07136018;-0.924986643;-14.05452543;-0.507338022;0.576946292;-8.810798222;-8.865654447;9.796153866;52.02839595;44.06770613;0.576946292;-12.03665123;-11.02096196;-14.53692625;-69.73617571;-49.64772637;1.455802736;0.741475841;0.521037845;7.951421917;30.06152387;27.67112606
0;-0.464664283;-9.555104643;-10.59251498;-0.191703961;7.898983897;-11.9247522;1.587109608;-8.718470368;-9.788597676;6.392162461;37.22258247;5.59618809;1.587109608;-10.08816517;-11.07563734;-3.826645112;-5.879579608;-48.52846444;0.874230017;0.320074653;0.277953772;3.164343876;10.60341073;17.84867747
0;-0.119246534;-9.71293848;-10.63815546;0.074899209;0.194933231;0.864441626;0.110116413;-9.64654568;-10.50388079;1.660594796;3.89320451;2.284428558;0.110116413;-9.76771272;-10.78130205;-1.253491121;-2.431043277;-1.135563054;0.083707762;0.031139864;0.081166718;0.825118019;1.453781734;0.924470623
0;-0.389979075;-9.677988363;-10.45323164;1.925538132;-2.670985514;3.370385729;-0.007967055;-9.551386908;-10.16713872;3.093571152;3.580823183;9.085947231;-0.007967055;-9.85660539;-10.75628793;0.462640279;-7.376902822;0.522164962;0.27491205;0.068587752;0.144296485;0.741669314;2.844292197;2.716354072
0;-0.571285326;-9.744649663;-10.17509603;-0.193944525;-7.371814777;17.44087079;2.696190438;-8.711038707;-8.432395796;16.32163683;26.31669866;80.43305147;2.696190438;-11.86577393;-11.78589856;-12.69152437;-28.77961779;-12.64382385;1.247303984;0.641093283;0.614451641;5.549999502;13.71278089;29.8377281
0;-2.108097844;-9.371654966;-10.36738624;-3.277906887;14.36487974;-15.375945;2.197891615;-8.360297109;-8.244444277;6.467986648;53.91770945;22.17085568;2.197891615;-10.76603382;-12.01398621;-13.1112298;-31.79723396;-43.11046391;2.183445994;0.591157094;0.726869614;4.40406763;29.19398408;16.53749885
0;0.251834395;-9.701120357;-11.26414116;-1.492894643;5.234263251;-17.49540354;0.895767373;-9.148265829;-10.55825605;6.965016299;14.59683399;-12.85994849;0.895767373;-10.35003999;-12.10109197;-5.722736712;-7.272100945;-21.52661665;0.465865598;0.279104847;0.391073468;3.165786858;6.510931627;2.139218087
0;0.277477299;-9.967593401;-10.82919672;10.37984217;-9.07155909;29.18958499;2.306902632;-8.648880376;-8.70789811;38.30793426;16.0716624;125.4078346;2.306902632;-11.86235875;-12.33064968;-15.25634726;-46.29580476;-23.9199007;1.277895594;0.635929793;0.794379749;10.82628294;16.54206105;47.47100704
0;-2.289206865;-9.036963383;-9.740743814;-5.991487475;-5.994850059;1.999548084;1.559341439;-7.951985037;-8.443609655;20.06660512;32.92794671;50.96243971;1.559341439;-10.48999922;-11.47531425;-21.12479241;-36.90311759;-47.55596993;1.23962633;0.611233387;0.769150773;9.501287428;19.99263204;28.7269172
0;-0.609048053;-9.679813777;-10.5331856;-3.069056822;13.01006773;-22.34548998;0.706869868;-9.061592764;-8.989483057;1.591992032;37.27933725;-8.974512335;0.706869868;-10.48097817;-11.2921649;-7.308969133;-2.18654603;-44.12534976;1.300880911;0.357102488;0.500761034;2.174521451;10.85034543;8.829319493
0;0.219747786;-9.734937815;-11.11578701;0.376989825;2.184701675;-12.29177412;0.645518506;-9.091760488;-10.64699373;7.29360787;11.64194224;-7.420551126;0.645518506;-10.53209643;-11.82091223;-4.492083204;-41.36656862;-21.70831421;0.363783927;0.209836129;0.316239044;2.79342569;10.20637865;3.137646774
0;-0.378744706;-9.802910032;-10.08764058;5.543459386;-3.023423898;50.15719199;1.71010431;-8.653651545;-8.679997928;26.97041738;29.07953678;105.4849724;1.71010431;-11.59290467;-11.38656335;-12.21884152;-43.29166366;-1.743096369;1.125734205;0.911545755;0.743082526;11.24944647;18.443378;32.72114259
0;-3.528295943;-8.947271917;-10.02679794;-2.023325702;2.904601177;-13.39125388;-0.06404931;-8.264389002;-8.796074794;11.29224926;53.16858741;12.14896868;-0.06404931;-10.99602968;-11.3488789;-16.71013223;-29.81018718;-62.27774705;1.791426857;0.663033445;0.485629971;7.938926672;20.66334428;24.49333676
0;-1.107244852;-9.480428632;-10.70780788;-5.665797793;-8.646012214;-18.24421341;0.592469929;-8.561421829;-9.796923083;6.578130371;17.23550225;-6.031071957;0.592469929;-10.10818477;-11.54039922;-12.40144599;-34.5072166;-30.63653837;1.082533249;0.351981057;0.459345815;4.246257849;16.68248713;6.220242108
0;-0.163251094;-9.714255941;-11.0933934;1.716786942;11.34302135;-12.34709795;0.61680131;-9.049590218;-10.59467353;9.646306165;19.04733712;4.505315266;0.61680131;-10.28353932;-11.49162046;-4.989128191;2.294268262;-21.26328738;0.355397523;0.220459619;0.225458826;3.255840132;4.831741253;6.424338145
0;-0.64337066;-9.770651648;-9.857816507;2.939654562;-4.720403448;41.94503452;0.362800813;-8.674493782;-8.46139676;25.10427817;24.11713453;87.1186831;0.362800813;-11.09824479;-11.07958993;-19.03305184;-35.26131661;5.162800206;0.708841014;0.658808179;0.715631984;15.50579328;15.57092752;27.67143153
0;-2.681727323;-9.12401873;-9.912599283;-1.703115624;3.096405953;-20.32369665;1.30158445;-8.037513882;-6.646277956;12.18030789;56.31396517;30.77356628;1.30158445;-11.80340688;-12.90250507;-26.39270495;-24.75212333;-56.34284914;1.888536534;0.918379309;1.272676282;8.968648987;18.70683884;23.77102108
0;0.061070465;-9.672000454;-11.00555168;-5.402187122;4.70475083;-25.35688545;0.682819845;-9.190847565;-9.527252423;2.063199214;23.35095735;-20.81309195;0.682819845;-10.14775685;-11.88259681;-22.39970913;-32.33896009;-33.12450386;0.455463735;0.227815605;0.456803564;4.573024174;12.07997037;2.787341011
0;-0.154245572;-10.01249935;-10.48194875;4.345096893;-3.715039471;42.77870942;1.372159822;-8.491015981;-8.459469135;31.63521063;46.02645533;103.9993999;1.372159822;-11.5827684;-11.50865634;-18.51861727;-35.56975444;-23.89585537;0.989466808;0.908929481;0.729212883;15.04129751;23.01761355;50.03925013
0;-1.817352584;-9.252922954;-10.02726946;-3.683150061;-2.753761144;-24.64628426;4.933317942;-7.460910268;-5.139972705;29.38725558;86.21720277;70.1217617;4.933317942;-13.96092643;-16.61016003;-42.39757194;-64.60178595;-63.40856454;3.101439539;1.496993751;2.192565369;18.75490282;31.35659833;33.70350267
0;-0.898349878;-10.00374306;-10.888549;4.570417285;10.74174145;13.10885181;2.394924206;-8.797114784;-6.854898567;60.27230498;64.77722406;146.0083079;2.394924206;-12.48815847;-11.99582223;-34.05833341;-65.02541651;-48.94197333;1.574121631;0.899943195;1.120031037;21.37437923;31.48056772;69.58236057
0;-0.963584127;-9.604805656;-10.27020782;-9.829417501;-5.959274831;-9.616051098;6.401191756;-7.003491416;-5.342387545;22.40564928;94.09229187;123.6591876;6.401191756;-13.84868979;-17.79851399;-47.32526192;-98.33120702;-80.32850021;3.867397936;1.590998755;2.369373609;21.44559678;47.55450298;62.98752377
0;-0.423409897;-9.868234889;-11.03527194;2.63838704;10.71340084;-4.680545335;3.02086474;-8.579438008;-6.96726823;38.60398367;59.41694052;121.8286707;3.02086474;-10.80014657;-13.60009463;-51.91568229;-84.47788365;-75.15243934;1.407237393;0.510850227;1.040338835;19.14194505;43.09497519;65.45773439
0;-0.526098776;-9.856280491;-10.40637426;-5.292333257;-0.185357835;-0.909344736;8.704420285;-6.020289511;-6.94181545;37.93964386;114.8734731;129.245429;8.704420285;-15.86994429;-15.58024697;-51.59738846;-99.49208288;-96.74208831;4.782306736;2.192232415;1.762453663;17.05266398;47.84447245;80.48272644
0;-0.566167856;-10.63134736;-10.83297009;-3.751741081;1.195219908;34.28217308;4.85878179;-6.728637444;-8.219155321;55.11310587;91.66255149;158.1021038;4.85878179;-15.37904739;-14.23913493;-70.14613135;-141.245985;-96.20996877;3.069491613;1.931168697;1.499526621;29.52741962;58.91503328;99.70730804
0;-0.406800472;-9.579285982;-10.76987607;-8.987690331;0.458305289;-48.99663711;9.87034605;-5.807024274;-4.983055378;48.70134433;87.56029209;122.22594;9.87034605;-16.75222502;-16.91605994;-65.09730746;-86.25103044;-130.8693074;5.442157428;2.035786809;2.652846234;22.91859097;43.87394756;62.31685402
0;-0.952387174;-10.12731988;-10.54188064;-1.208023712;-2.66015347;56.90672536;2.986885133;-6.122973362;-6.813464097;44.14626216;74.50443336;166.6254096;2.986885133;-17.18264082;-15.45934239;-79.67078539;-130.5450017;-94.11600311;2.804017329;2.794186565;1.771525816;34.04311595;54.7754167;87.94547269
0;-2.6884099;-9.707016944;-11.37212709;3.459280623;30.58477044;-52.75817475;6.192716493;-6.067348441;-5.956626578;60.62851698;126.813427;98.74798327;6.192716493;-15.65904435;-17.00598073;-56.40974365;-76.44594195;-122.9373171;5.144209574;1.862538842;2.026593874;35.01576943;48.26790356;53.02093519
0;-0.777559134;-10.49040216;-10.81398276;-19.76632495;-25.08719103;26.94112589;8.73789949;-5.899610761;-4.858225535;74.80369931;121.1740011;177.9928648;8.73789949;-18.35615374;-20.74272475;-79.68031255;-153.087529;-131.530504;6.161618988;3.171365629;3.337873075;32.33017082;63.87655359;104.5517832
0;-1.356931976;-10.4250586;-11.08568572;-3.301617654;9.088580232;34.51613573;4.002595449;-5.720081344;-7.648446303;61.93798033;149.7341615;172.7305279;4.002595449;-17.63139381;-15.65407773;-77.91746904;-163.5897135;-118.3532544;3.901084523;2.597010929;1.682861969;37.71391751;77.3645471;106.0363247
0;-1.460378986;-9.837111384;-11.07546808;-3.287974832;25.12766999;-72.96696675;9.755806634;-5.749258508;-4.806547101;66.05780869;159.2403353;7.161046636;9.755806634;-17.46750187;-18.61656307;-69.67660446;-76.05987166;-132.4676593;5.587727856;2.370319585;2.650847878;26.41029545;56.12443293;38.01073395
0;-0.745407044;-10.51243598;-10.76058918;-6.462232067;-16.26178977;43.85490839;7.339537607;-5.982933787;0.030200514;73.90452437;57.36520188;167.2342847;7.339537607;-16.14592007;-21.86751833;-122.6954636;-113.4220601;-139.8558862;6.240864628;2.813646882;3.808499577;37.46513771;45.48624813;105.0233907
0;-1.317581313;-10.76060919;-11.0503329;-5.54594621;4.241184412;25.19311081;2.911781619;-7.114061633;-7.851311218;44.98278219;91.08972872;189.382858;2.911781619;-17.28524398;-15.02565106;-79.22987418;-99.34826507;-114.6364101;3.389521413;2.345355514;1.668169313;31.78257474;53.47411974;120.5130362
0;-0.651945172;-9.669451035;-10.75028662;-5.872055229;12.62974955;-58.54443069;11.50456878;-5.459243976;-4.53908411;77.36530651;101.9814109;105.4323555;11.50456878;-17.56517419;-19.56140598;-76.63110018;-67.47844487;-134.9425655;5.907149862;2.315432909;3.071492733;27.70248113;43.91711794;54.82118883
0;-2.828573055;-10.01766522;-10.63597327;-3.889744472;-1.292563196;50.1409134;6.479870582;-6.510469094;-1.849430954;86.29275173;91.86880293;191.607048;6.479870582;-15.92574942;-21.52402076;-98.63050891;-128.658647;-165.1749756;6.247031266;2.603542866;3.679952497;42.01934809;58.97688009;106.457172
0;-0.952892018;-10.71978667;-11.64188237;-1.291625713;16.97264704;-21.69001293;13.01043897;-8.134994342;-5.316489132;49.20468691;87.78766543;207.9187338;13.01043897;-17.12740427;-14.95540301;-76.71122913;-104.7499658;-137.0738669;4.721006988;2.352357527;1.818503977;29.88279223;53.85131976;106.641436
0;-0.200249979;-10.11144613;-10.36311846;-16.34280078;-16.51281194;-2.074161763;13.59939589;-4.822599166;-2.829528005;87.31912281;65.37417296;165.7572609;13.59939589;-17.7323323;-22.0354044;-92.10051283;-111.5486726;-155.1767314;7.450382871;2.73439726;3.900405104;33.64030164;51.65354113;104.243354
0;-1.1825197;-10.21521561;-10.8084928;-1.573060096;9.448620578;40.18320104;6.511306988;-6.224404027;-5.433891278;51.72911839;89.46780968;194.1670154;6.511306988;-16.71354201;-14.88289238;-71.62859209;-118.679827;-110.4582953;4.228850422;2.779646086;1.973878188;31.58193542;61.05202676;113.4973234
0;-2.756063867;-9.778114288;-11.16883001;-0.735349301;25.87830287;-60.67553896;15.78345732;-5.349941508;-2.44011938;80.9143996;117.3166794;115.6814057;15.78345732;-18.69410638;-22.39741758;-108.2330189;-130.5745907;-144.8174814;6.832785347;2.576780673;3.8727237;39.56417229;62.47547709;64.07053158
0;-0.617924347;-10.54751629;-10.34681943;-18.4681998;-19.03467324;38.69960016;14.82855956;-5.157700881;-3.712922831;55.93460066;102.55854;204.9175327;14.82855956;-17.96971525;-19.8507245;-92.64929394;-93.59043492;-131.6543056;7.01591054;3.530223643;3.359117216;33.65310003;52.32874753;110.1987741
0;-2.231245873;-10.76937295;-11.15816069;-3.931022557;8.409456843;26.13353363;3.859315147;-7.834183997;-7.373089269;53.94873725;98.30104848;203.9189499;3.859315147;-15.25120185;-15.45993903;-91.66728776;-140.0208446;-103.7811491;3.995567673;2.148423525;1.870332256;36.78717827;68.15505715;123.8654331
0;-0.387764395;-9.954437933;-10.57027965;-11.87789811;7.358160653;-58.33183712;19.04295512;-6.098897747;0.838815858;108.6056779;148.2117592;111.6090632;19.04295512;-18.26493498;-24.02845249;-121.3347855;-123.939788;-175.5261263;8.232609248;2.771040193;5.068543002;39.1092214;59.34331122;74.96898029
0;-3.444824093;-9.807625784;-10.33361258;3.468371476;3.273058115;47.2396835;3.250531896;-5.64580891;-5.307752403;68.44568267;104.5508775;176.4736164;3.250531896;-16.55378622;-17.46281433;-70.29823331;-142.2121879;-118.4464809;5.626154097;2.93688845;2.737607384;39.72091851;60.35868282;98.24866003
0;-1.170365865;-10.45919823;-11.34934926;-0.437718037;9.896999867;-27.12782482;10.59889294;-5.399449236;-5.799557569;56.3557683;106.1096196;167.1595675;10.59889294;-17.76403814;-16.00766213;-56.05256251;-127.1389297;-125.3072528;4.76939095;2.612492293;1.932698322;30.52105236;54.08890071;96.06750974
0;-0.202749191;-9.82934745;-10.35385513;-14.00144416;-11.85866175;5.829075803;12.20340583;-4.84690623;-4.17524575;70.16643077;59.82611011;167.0944738;12.20340583;-17.27880303;-21.05393859;-82.06623956;-123.1490021;-124.000293;7.391397818;3.050455981;3.314096576;28.32586503;46.71905716;97.61473783
0;-1.110260934;-10.33777018;-10.64587511;0.02935702;11.82727524;35.81319173;4.396034969;-4.832771836;-7.681436765;55.46864618;97.16957117;174.9778514;4.396034969;-16.94276143;-14.22706995;-65.32249617;-136.8165891;-134.5386642;4.29065505;2.868977834;1.582014972;33.062731;62.28791276;112.6810831
0;-2.122561057;-9.996648298;-11.07640821;-1.893162523;22.41366808;-70.61621663;10.37372681;-5.260538692;-5.331568625;64.68310356;103.2900699;57.97580851;10.37372681;-17.72614173;-19.64656271;-74.43497736;-129.7684885;-123.0835602;6.839775765;2.256708551;2.707531715;31.2097264;52.13157584;50.8116196
0;-0.568563721;-10.57994505;-10.65756734;-14.85228474;-20.95203743;54.0435092;12.02001263;-4.963859252;-1.307267774;96.07523184;70.65305354;179.3074683;12.02001263;-17.05943258;-24.0156434;-110.7991877;-138.4114317;-151.4281628;7.622278949;3.31664384;4.188679922;42.5219782;55.43410801;104.5939696
0;-1.846636626;-10.9316598;-11.07846822;-1.354073337;9.620004979;16.28236536;3.924957293;-5.331947756;-7.131485781;57.97975235;100.2758579;170.5237071;3.924957293;-16.25975866;-15.65596689;-82.96593539;-167.4345369;-124.8027933;4.05024387;2.472695117;2.021429021;35.33172623;73.1397751;122.9619513
0;-0.406839895;-9.798450663;-10.89263277;-6.239140896;20.41542128;-60.39595719;13.70972085;-4.718918143;1.900144734;127.6974136;106.197174;115.0692433;13.70972085;-17.38495042;-27.3965025;-142.1760858;-103.6543937;-174.624285;7.271916375;2.514918962;5.207197674;43.16319157;57.04920517;72.54001444
0;-2.9455923;-10.11375646;-10.66214209;-5.113152242;-10.47034457;51.59193735;6.365043866;-6.207482242;-4.492993066;71.11392658;137.8321028;184.2198001;6.365043866;-16.26307162;-23.70453579;-108.3575536;-190.3363964;-148.6422499;6.960035671;2.838624804;3.839955106;46.61522071;77.87663475;103.3403203
0;-1.125557481;-11.09102944;-11.69949048;-0.729814648;15.24322244;-4.781345988;11.31576012;-8.298629011;-7.45560676;60.61970049;88.96226499;201.0680375;11.31576012;-18.07173358;-14.77003336;-58.22494316;-144.0265285;-106.7978416;5.390804839;2.502254168;1.949232914;30.00639022;62.16723569;110.821613
0;-0.08336934;-9.548282844;-10.69315865;-18.34523584;-9.568238891;-22.32535335;15.62771957;-4.060314752;-1.449557609;89.5381149;113.7511674;175.000866;15.62771957;-17.09139718;-24.11969233;-123.3307269;-146.3146874;-167.3465082;7.101394078;2.868818314;4.243339074;35.19871981;59.08911188;96.49245353
0;-1.561036629;-10.25966833;-10.41624516;2.337459298;-3.538029364;43.89569676;5.60174956;-4.682336582;-1.063690561;88.79031348;103.3066045;208.2791181;5.60174956;-18.61684442;-16.00358786;-79.66472538;-146.9303024;-165.2929148;4.762508305;3.788569787;2.725988554;38.85826117;71.03948387;120.9726405
0;-3.299277007;-10.39611101;-11.83207131;-2.628564738;36.78239341;-55.10582657;14.40090978;-6.026867243;-3.621315849;102.4542057;144.3258525;142.0076082;14.40090978;-17.53943932;-23.55001739;-118.9380098;-86.37184369;-161.2844083;7.363459606;2.162756038;3.559835034;41.01793176;54.41066453;69.15072235
0;-0.066163955;-10.51894862;-10.49167609;-18.29937076;-25.1178296;31.13261573;11.60374818;-4.612825158;1.749299521;96.42680871;83.53930417;190.6630618;11.60374818;-17.20695007;-25.08785648;-124.6093529;-153.3454267;-163.3995233;6.988989637;3.423695421;4.945058252;38.04664638;50.16217672;116.5102485
0;-1.549664817;-10.65206246;-11.20800631;-0.286318919;11.93668592;37.50746155;5.663850189;-6.257357708;-7.62984094;51.70157042;103.2361563;191.7725707;5.663850189;-16.54190469;-14.589467;-70.61127367;-133.2019583;-127.6110101;4.590990585;2.495053995;1.791256849;32.19430724;66.14766085;119.8128255
0;-1.295109764;-10.05038304;-10.8130603;-3.790311261;22.58559877;-79.45424256;9.167249364;-4.625702903;2.362452949;113.176072;97.16756283;22.3298995;9.167249364;-18.67501914;-25.67846756;-137.7835695;-46.48434661;-170.562016;6.529897337;2.843727173;5.024970842;40.69376412;36.51199698;47.95282281
0;-1.199099177;-10.85651079;-10.46822869;-6.305206026;-15.6073084;52.01254647;11.74432351;-6.110655707;0.249013623;82.7189867;48.22734728;209.3589439;11.74432351;-17.81238313;-23.66536841;-103.4884177;-139.2897438;-163.891916;7.661564062;3.147082377;4.363214173;42.04890324;50.87528238;110.713026
0;-0.59752161;-10.72445191;-11.44615715;-5.09574165;7.676443495;5.084721622;13.51206454;-7.909443003;-6.540993733;46.3985404;52.14119393;209.6455295;13.51206454;-17.69808771;-16.78492347;-81.48901323;-129.0614393;-128.5454609;4.406874568;2.437987312;2.052171753;30.90408062;45.97982864;123.5843791
0;-0.257398719;-9.439375877;-10.75547638;-6.042783914;5.807766466;-40.84645052;14.89941521;-4.784144874;-4.501327159;77.12451643;110.2239893;164.0897514;14.89941521;-18.56201646;-20.26227483;-78.92920446;-87.8128417;-161.3436724;7.64957743;2.6146664;3.36303957;27.66785742;49.41883539;90.21163121
0;-0.914797571;-10.32215004;-10.62086526;5.331497993;-5.266446656;49.32801579;5.538218834;-5.439732729;-5.292892989;72.58386955;77.5799376;200.9011469;5.538218834;-17.1262987;-14.22452049;-69.41439965;-137.8040666;-138.6930573;4.252598231;2.702476113;1.967375591;34.85303472;64.98088424;106.6447909
0;-2.86940662;-10.11250961;-11.63205666;0.791734879;28.08122362;-42.21212545;13.98599249;-7.125783744;-3.823000346;44.36971917;125.6094744;199.2754147;13.98599249;-18.24002397;-21.18934551;-84.44474231;-73.45393601;-139.0247507;6.963594844;1.97988192;3.257195572;31.7965894;55.40017315;84.93667717
0;0.245051123;-10.85590452;-10.56362909;-20.74941199;-23.981222;20.67370619;15.65258552;-5.035281929;-1.013914561;101.2815866;162.9297928;216.5812902;15.65258552;-18.86374923;-24.31657224;-109.8319481;-131.5269857;-152.3458173;7.65942377;3.505662873;4.69457856;41.95538482;75.33598589;116.9504822
0;-0.98478799;-10.81664389;-11.18749653;-3.245788319;4.303180491;35.00754671;5.634289569;-7.800227912;-8.19676548;48.75351817;73.8096557;212.7654326;5.634289569;-18.249773;-13.57181766;-68.78596864;-116.1042121;-129.8681439;3.611700589;2.537397302;1.390772523;29.60938519;58.88049213;125.4919699
0;-0.441135974;-9.593042353;-10.89359054;-3.769485399;20.2757709;-72.37028788;15.15081183;-4.626863641;-3.887106332;86.90542824;82.45051677;65.31243419;15.15081183;-18.74013615;-22.8165821;-91.35679374;-80.59353486;-141.6620849;7.626255336;2.594715752;3.847580337;32.26114762;41.6779891;54.92658047
0;-2.563266997;-10.22425095;-10.67849187;-3.856671463;-6.439493612;63.62969571;7.404672361;-4.460394759;-2.204339062;99.97944303;96.10517729;231.2205904;7.404672361;-19.00525406;-23.5108334;-105.5780741;-111.7821163;-160.3902519;6.971115081;3.493563341;3.860025519;45.05527428;53.59820244;111.8365691
0;-1.034215748;-10.60091281;-11.76783128;2.898803585;22.28748587;-30.64299889;17.77449519;-8.009973214;-4.621250552;65.78995355;92.27603841;224.0926209;17.77449519;-19.07197667;-16.98651166;-74.02814229;-102.9426177;-136.1054532;5.86802716;2.539122981;2.338264707;30.37129108;49.4591262;107.0746154
0;0.37372538;-10.40548051;-10.52197519;-19.95993254;-18.35415088;-0.135485827;15.39950999;-5.152515456;1.424453732;124.1070238;142.8849009;182.6263324;15.39950999;-18.76727726;-26.63567955;-131.6781778;-140.4269024;-165.7093105;7.708988859;3.4601946;5.303559333;47.76995363;77.64715742;110.2069164
0;-1.082001102;-10.45732168;-11.19678753;-3.818211374;4.34103155;45.78274346;6.813235823;-6.690183552;-8.363654098;54.03875342;134.2679993;200.2947598;6.813235823;-18.60321597;-14.41329934;-84.90410577;-126.6332272;-117.0377462;4.662461739;2.992219117;1.608668604;34.06398984;66.0491551;113.6600491
0;-2.076107925;-9.895457963;-11.13281292;-1.348147989;26.37527829;-74.56302975;17.73198402;-4.931919465;-1.660672133;94.73862994;130.6721257;20.87571258;17.73198402;-17.5655375;-21.58722412;-86.82431886;-82.68548851;-122.5889687;7.119346022;2.122251492;3.96163042;36.63741275;54.16183144;43.21498712
0;-1.980089374;-10.49823404;-10.39671438;-9.531373546;-21.24653056;59.21450016;6.313899631;-5.811979912;-0.618585663;110.9049736;89.92975961;209.2918278;6.313899631;-18.14809177;-24.65336598;-106.3788852;-118.2705788;-137.0250149;6.451326541;3.386135438;4.395683597;45.58340628;57.44324639;100.3679524
0;-1.176629438;-10.88610209;-11.48263402;-2.477992145;20.20436443;-5.44597167;15.85314299;-6.835853045;-7.202376683;56.54208063;90.99408721;219.3998652;15.85314299;-18.42564206;-14.90882979;-79.78594456;-138.1912891;-123.1445972;5.813106896;2.763778116;1.637481519;33.06175672;53.78689106;123.9730694
0;-0.008861847;-9.513873918;-10.72527361;-13.10523715;-4.907166186;-27.77167838;15.62580061;-5.524605334;1.153759381;112.4845448;119.9991568;168.3907121;15.62580061;-17.56283031;-25.66062226;-129.2932494;-98.70116764;-170.8403948;7.507813474;2.574490447;5.080788068;41.54799335;55.08642862;94.29314764
0;-1.343323624;-10.36959676;-10.33605298;5.780909804;3.716321952;41.45030031;5.728758534;-5.739881663;-1.403392551;104.4931858;78.50221338;208.7508855;5.728758534;-18.41047319;-14.37737465;-70.19299986;-139.8817502;-132.4427483;4.975759068;3.267267303;2.525412435;36.95608567;59.62329925;115.6577292
0;-1.981453626;-10.24284898;-11.913738;-2.933665507;29.05253536;-62.02650581;11.65380142;-7.179645277;-0.651280831;67.31427201;94.10352651;84.04840213;11.65380142;-17.27648473;-26.12407282;-114.5998847;-129.9561758;-135.9109616;6.884143403;2.017953365;3.9705696;35.5910181;54.46210464;55.27960865
0;-0.793180455;-10.14637873;-10.22578115;-17.56847298;-28.0835573;58.06310367;19.51331228;-4.876031235;-2.321404286;77.72342524;100.5427026;220.0537086;19.51331228;-18.39106568;-19.20556346;-77.31252844;-137.1902239;-136.3723247;7.733494196;3.982197621;3.396324311;35.76105213;57.01754538;110.4635176
0;-1.978863125;-10.97607465;-11.43736085;-3.497381793;19.71353697;5.941163015;7.15059769;-7.725053597;-7.595050565;53.81501567;122.3204084;185.8503433;7.15059769;-16.99334377;-16.49136459;-79.6962341;-136.643122;-128.1428779;4.246670904;2.413709302;1.975164117;34.24632259;69.53989297;126.9022557
0;-0.755519329;-9.033980832;-10.80121399;-13.79130036;-1.509018771;-37.4020267;16.34402598;-3.249284934;-3.917222984;55.54991273;88.45726516;142.2781401;16.34402598;-17.05096552;-19.28975453;-73.57653696;-79.92603759;-121.9072981;6.736896477;2.695972088;3.077464891;26.48654666;48.4725641;76.06538899
0;-1.180395943;-10.279479;-10.77768892;1.782662622;5.02222552;43.2972508;4.90901373;-4.248940268;-4.392773953;69.36211128;136.3787396;180.2585043;4.90901373;-16.53140624;-14.59353726;-72.59288245;-149.0756029;-147.0634231;4.889291077;2.830383527;2.144055201;35.22466354;76.70397427;118.6850018
0;-2.259642698;-10.12801769;-11.61162582;-2.920276502;25.29122786;-62.08356723;20.55081075;-3.463867357;-4.479321004;64.95713929;116.6874257;81.24116092;20.55081075;-17.73140548;-21.15510551;-79.55631294;-93.84921024;-133.3004735;8.320322364;2.416371112;3.175088956;32.91717655;55.98575704;67.95974543
0;-0.364348622;-10.50462526;-10.41705127;-13.7992918;-16.36393806;49.27782823;16.2425196;-3.992942011;-1.831589142;106.3169635;127.43543;199.2173712;16.2425196;-19.33149164;-25.64942683;-106.0846897;-99.19698439;-164.1930917;7.825213839;3.585449449;4.35092929;40.54813015;63.03442896;116.0460321
0;-1.672700755;-10.85477538;-11.39314445;-0.865368379;5.624892577;9.882793725;2.747567763;-7.908337726;-8.170669858;49.25739194;101.1068037;209.8150462;2.747567763;-16.5586974;-14.32436451;-69.1011099;-92.36357074;-131.5319613;3.491429006;2.305370972;1.497700548;29.35782117;45.95792631;128.6273056
0;-0.399087009;-9.218868491;-10.76597193;-7.260319193;6.236659888;-39.33542372;18.48666545;-3.821578724;-1.01508782;117.0523329;120.3763064;153.4315654;18.48666545;-17.29581244;-25.4636631;-97.9472646;-101.3505448;-140.2264996;7.450124388;2.675549156;4.548110029;38.52833168;61.71118364;81.73610612
0;-1.686609607;-10.42435878;-10.4284384;-1.410778244;-5.173214082;42.68942689;7.475154404;-4.625392048;0.995522442;130.1958521;94.4005301;220.7378807;7.475154404;-20.00721616;-18.20538624;-114.5236845;-147.3577338;-175.4875295;5.731930161;3.650193838;3.455102515;56.71775238;83.05990082;124.3909142
0;-2.348402129;-10.13894143;-11.79678567;-3.848512879;39.24596428;-54.48688097;18.42196521;-7.393356847;-2.330571445;49.54935263;154.1203229;119.1275586;18.42196521;-19.32521615;-26.16722866;-123.1087578;-117.4164528;-132.8552971;7.358590075;2.226349088;4.224091348;39.21573625;63.34849517;64.68035835
0;-0.218948572;-10.86198701;-10.54045247;-21.70986453;-25.86154768;43.90670254;17.22472368;-4.668676417;3.188066974;125.5564754;135.0081367;222.5625134;17.22472368;-19.28336951;-25.60459275;-120.4410027;-155.2182576;-184.3892719;8.242579961;3.515853347;5.110327568;46.06531082;76.27688227;122.3572627
0;-2.028246528;-11.01656858;-11.19843314;-3.117632529;11.93532617;19.15058284;3.908636938;-8.631810315;-7.948482566;44.6159588;102.5814529;233.7863907;3.908636938;-19.38744281;-14.27874473;-76.07280184;-140.6269378;-120.9962338;3.672024076;2.626827225;1.807066619;34.36826571;57.61048253;131.400139
0;0.00197615;-9.380778246;-10.79817635;-11.75798616;5.126405147;-52.15570844;17.97769999;-3.364700742;4.511609265;137.515851;144.934728;152.1456798;17.97769999;-17.41358983;-26.47450036;-125.8262336;-147.5046362;-181.0704982;7.873823218;2.800252778;5.576331448;46.85591521;76.04362895;80.61575253
0;-2.596127653;-10.23455805;-11.07634114;-0.419667236;1.98690011;46.91656498;8.904292755;-4.490029014;2.678948594;125.7050438;103.4882943;224.5058078;8.904292755;-19.11705652;-25.38935207;-96.05592063;-175.8237897;-165.0610845;6.803001201;3.283196113;4.573458821;50.35668837;80.96723733;118.5765663
0;-1.645483098;-10.10424502;-11.2848559;0.12663155;32.31431749;-45.82581842;18.96061059;-7.410830754;-0.881650818;61.77104219;92.92431612;187.6762617;18.96061059;-17.82248166;-18.19132869;-104.0822342;-107.2764646;-124.1720341;6.721768095;1.956872701;3.392497278;39.93472172;52.36218739;80.62679258
0;-0.149472146;-10.95590297;-10.31939815;-29.40527774;-27.92526553;32.50989908;18.03849734;-4.985107142;2.586627543;122.4218224;136.9891406;231.514382;18.03849734;-19.54585599;-25.29749511;-116.1067081;-165.5848386;-171.6712386;7.90387627;3.833561748;5.466119986;49.79336871;79.69441117;121.3158633
0;-2.002378092;-10.90195792;-11.66243423;-3.972604618;6.008478268;31.17761308;3.730914175;-8.007843749;-7.879266894;53.65581485;114.4206767;232.3560561;3.730914175;-19.41640606;-14.25845324;-87.36780814;-176.9551961;-116.5602087;3.943850307;2.681560939;1.80065749;39.18366854;77.71618237;131.1559235
0;0.032556795;-9.565002063;-10.9471149;-9.332947968;17.58224177;-64.07611028;17.10757448;-3.672141064;6.659720337;159.2131647;146.5411167;99.10506164;17.10757448;-17.77460653;-28.24958273;-158.3199571;-120.6266737;-187.5134712;7.747240866;3.236722393;6.015169308;51.98644965;67.86333281;65.71698015
0;-3.076928164;-10.24240631;-10.92317965;-2.125505009;-1.303686317;48.3026778;7.265218548;-4.876235025;1.137687553;133.2826301;147.0555177;225.3104078;7.265218548;-19.39774315;-25.43598646;-129.0249662;-146.4463765;-179.2822857;6.977600376;3.227553433;4.404662991;54.23747948;75.47465581;119.6443802
0;-1.764600885;-10.41542461;-11.25185198;-0.485739931;30.65343932;-31.94464519;17.47246755;-1.914375089;0.235460256;64.42499705;119.2072008;207.433745;17.47246755;-19.62236557;-15.77099915;-120.1427038;-115.6640646;-126.4621605;6.630125375;3.162182334;3.169379137;35.90380244;60.4764487;97.42927038
0;0.121384225;-10.70034799;-10.18988092;-21.92463611;-26.40671941;12.37824162;18.03343128;-5.121073978;0.860803597;119.3496181;98.75192916;197.5241891;18.03343128;-19.24312721;-25.10380337;-121.7844083;-143.7422403;-164.8859013;7.745564763;3.857370537;5.009651511;51.56915907;64.23255684;113.1000676
0;-1.353198664;-10.69496808;-11.20203022;-2.796300555;-0.117166548;39.04305628;6.68953065;-5.685961248;-7.331553804;49.28867059;95.36231741;220.4105716;6.68953065;-18.59636194;-14.0545384;-84.1324778;-125.2514882;-119.7176438;4.500665341;2.860254912;1.628647592;34.82616659;70.10983418;126.8101895
0;-0.783373866;-9.943190423;-10.71889756;-9.926694632;21.03824635;-73.52406275;18.63372874;-5.185750732;1.691835604;109.5675615;108.5507682;82.17613888;18.63372874;-17.12328463;-23.46629457;-103.818904;-99.81519053;-172.2923465;8.18119447;2.432917944;4.66478879;37.36288644;43.85745126;60.03469633
0;-2.089520848;-10.28510769;-10.23937867;-7.870129857;-6.388767039;59.36997959;7.565296651;-3.835088073;1.049373516;126.763256;106.4499915;205.0511079;7.565296651;-17.56576137;-23.00979503;-106.2120582;-138.3591688;-180.5307275;6.555173119;3.427171244;4.718768617;53.04052436;67.08368274;106.6243573
0;-1.167363733;-10.63313116;-11.96685995;-2.550441265;21.09997565;-27.5966866;16.10654039;-6.94194116;-6.934238998;59.30517506;95.12378621;215.715945;16.10654039;-18.65564149;-17.09761774;-97.09547477;-101.0298527;-137.8559453;5.542058549;2.653581955;1.858174756;34.96013937;53.29814115;114.7745253
0;0.203228523;-10.02504096;-10.21009295;-17.15595441;-19.95062945;6.335722509;18.11214202;-2.782953768;-0.324722628;121.5986004;106.5752509;192.0986529;18.11214202;-18.83358309;-24.31769007;-103.2619877;-123.3396377;-192.3046436;8.188046817;3.712777389;4.49488394;43.11856266;64.45516496;118.1452508
0;-1.236060122;-11.0193133;-11.20614062;-4.306316818;6.9737721;38.99839131;5.570597869;-5.685651442;-7.576142455;54.53912287;120.793659;197.4893189;5.570597869;-16.70756752;-14.17820222;-85.03468831;-127.6650597;-139.6214556;3.980135468;2.587754678;1.609655987;34.33599754;77.21371503;131.0432043
0;-0.330539003;-9.728999447;-10.79552169;-4.221905551;21.53548743;-76.39610331;14.21555888;-3.916243306;-1.863269258;121.0681037;83.33305054;85.05995126;14.21555888;-18.44112533;-25.52702402;-112.311594;-89.60805843;-187.1172885;7.424273647;2.904505219;4.427427969;39.19454489;39.77170406;64.4726308
0;-2.266410625;-10.39100944;-11.05552871;-0.808944955;-4.801640614;61.85929429;6.444377321;-2.917715384;-1.050491447;115.8088382;82.8550574;214.4684681;6.444377321;-18.79666954;-25.66407098;-101.6224733;-104.141972;-168.5062179;6.56419361;3.521012019;4.056672913;45.78212024;61.22235332;118.8772655
0;-0.938438678;-9.849404017;-10.9108544;-1.086875179;19.70323735;-49.97194126;18.00276586;-3.598608014;-3.776529628;54.12860651;102.7225025;174.2834584;18.00276586;-18.33810046;-16.94743252;-76.81321967;-121.991457;-127.4185604;6.194455615;2.310645013;2.843775068;29.95023706;51.52230192;76.32847296
0;-0.079587483;-10.87084522;-10.32780879;-19.66598318;-17.89849426;34.27819421;16.21739414;-4.288492228;2.248780422;149.9643551;110.4968849;213.9086627;16.21739414;-18.18113998;-26.69391092;-145.7406067;-139.2801194;-183.1131009;7.615259638;3.421616149;5.456182895;53.75127687;70.08015381;122.5970711
0;-1.753583049;-10.83489973;-11.28745976;-3.529978167;6.029361547;29.11822517;3.786182696;-7.657970243;-7.517737805;52.67631014;98.23242187;213.5473749;3.786182696;-18.35962309;-13.83731853;-88.1437103;-142.3993171;-119.3972845;3.657009601;2.883148068;1.763703067;37.96112211;70.57577723;130.2492699
0;-0.092807092;-9.531358194;-10.75417436;-7.511182866;17.37229226;-66.63658025;19.54768821;-3.858249385;1.549389022;139.7112774;155.4505189;121.4169251;19.54768821;-17.59202799;-26.40965638;-130.8126574;-121.1954576;-193.6647917;7.955711573;2.741119183;5.410306246;46.94810043;71.64183543;74.92382514
0;-2.696001253;-10.29187783;-11.11240288;-4.93392952;-6.643123226;57.40043063;6.306084663;-5.220212609;2.669168934;123.2110491;158.8166228;211.8619245;6.306084663;-18.45209146;-25.95073276;-128.1132469;-125.8559169;-180.7276493;7.053923928;3.383940548;4.642837127;52.65194348;76.41011299;116.0386288
0;-1.580555123;-10.06707475;-11.19321884;0.518600334;33.09734026;-40.6754921;20.72933774;-5.707359459;-0.612069666;55.76876429;147.8030482;207.1949252;20.72933774;-17.64783318;-17.25250844;-108.4653862;-150.5646102;-155.781581;6.869736217;2.167913552;3.378216223;36.97818667;71.62859188;93.16310927
0;-0.195315049;-10.68048786;-10.36183539;-24.57554392;-30.19455413;27.27436988;17.59865369;-4.5149043;0.909537423;117.7575035;111.4854008;208.6089582;17.59865369;-18.80292547;-24.79623079;-118.2684981;-124.8539629;-172.2347359;8.008959664;3.885530749;4.862837742;46.2814287;66.88106661;117.7189656
0;-1.571806764;-11.16066257;-11.22131204;-4.761263587;10.18509635;28.50305741;4.450526283;-7.839873492;-6.352062891;54.08104136;111.7345989;215.2914359;4.450526283;-18.18537318;-15.00179868;-110.300968;-151.2756829;-121.2833392;4.458259994;3.062529364;1.925178587;41.04235561;71.28297727;130.7355682
0;-0.417012964;-9.367807531;-10.83743685;-6.206086329;11.87853882;-57.31676124;12.98788421;-4.655999679;0.736836178;119.5994155;83.12908316;111.0926552;12.98788421;-18.06247456;-23.96631705;-109.5392367;-60.59085544;-155.4048868;7.122621872;2.798951622;4.51192839;39.05510951;38.2701024;66.58075127
0;-2.674920542;-10.24175874;-11.22068394;1.697194917;-7.61106399;46.23248335;6.668924981;-5.252138701;0.941567493;122.1395261;111.4125435;198.5575232;6.668924981;-17.81180257;-25.85243537;-109.8528167;-161.8005062;-151.6092942;7.005011992;3.431106452;4.420230369;47.4356804;68.15464884;114.6349276
0;-1.423076373;-10.27504073;-11.35248664;-2.187786889;35.39588355;-47.7787264;19.10498109;-5.359791397;-0.878062635;59.56942663;126.3275204;141.2861715;19.10498109;-18.04052341;-18.2416861;-123.7759384;-106.6478409;-135.9736585;6.517632435;2.463915612;3.146280052;39.21464474;62.39231018;78.32054498
0;0.260840935;-10.75200023;-10.03684145;-15.82630039;-27.58237259;39.77582922;19.89786457;-2.295408574;-0.310457224;117.0403524;120.7623178;204.0005698;19.89786457;-19.60296119;-23.63770495;-107.0085811;-245.9718963;-191.4146932;8.948728138;4.584664437;4.350931452;46.60624102;84.61385412;130.9281286
0;-1.935381147;-10.87132762;-11.27350096;-3.454684251;10.316841;21.00924238;2.993600643;-7.926263312;-8.541070802;58.61190951;109.2660373;212.3410521;2.993600643;-17.97982162;-14.1199832;-72.17008039;-113.8533621;-115.3627918;3.933913059;2.621274214;1.469876107;33.69305463;62.65726622;127.2760782
0;-0.143170022;-9.505151944;-10.69593722;-10.95161659;13.05629763;-56.05546567;18.82655445;-5.37545784;3.926950942;140.2533208;154.3412994;129.3472043;18.82655445;-18.4919845;-25.50400905;-123.5564481;-135.6937141;-169.6735092;7.875841663;2.788839828;5.269131799;45.59642117;76.81079187;77.27714445
0;-2.37136922;-10.30144464;-10.84402222;1.359996455;-11.62075579;50.46208542;6.339957365;-4.845538286;1.428155071;115.1240595;109.7277149;214.0655625;6.339957365;-18.50791528;-22.67391327;-86.91157561;-136.9063335;-157.1838905;6.601135092;3.486972821;4.068243815;44.90488857;70.18143725;116.1629329
0;-1.931344101;-10.07976123;-11.33996521;-4.115093963;37.65524636;-50.36839516;19.04528695;-6.201253947;-2.775602987;59.96427475;141.3481391;128.9501219;19.04528695;-18.10578665;-18.27050486;-101.5357987;-107.5437042;-136.1682571;7.189701283;2.420849238;2.983831335;39.63951745;62.67280569;73.49506402
0;-0.344316651;-10.69540256;-10.14884795;-21.70710838;-25.57728504;43.03769671;17.11562229;-3.471639645;0.507576765;110.0248361;113.6285811;188.3173915;17.11562229;-18.71600994;-23.08775289;-103.3609012;-153.9803847;-160.2035282;7.990101761;3.90419448;4.614958153;46.21400569;59.46140089;119.250067
0;-1.921198954;-11.00292515;-11.50782716;-3.787009171;14.42709699;17.4602186;3.190748905;-7.229953585;-6.82123587;46.25931791;115.0955609;228.3666729;3.190748905;-19.33254757;-14.20907834;-86.57726931;-140.8786667;-128.1149425;3.767259584;3.012975028;1.957133436;33.99711495;64.16308924;134.6911001
0;0.437712681;-9.68471367;-10.92275965;-10.13415005;4.706846473;-53.57989103;19.21912744;-3.236218068;4.75421779;145.4266212;112.9602401;144.2898346;19.21912744;-16.88765033;-26.22493253;-133.325676;-150.0274449;-204.8737386;8.412879556;2.764862314;5.685870678;49.65976715;69.86339396;88.5652455
0;-2.248685463;-10.44692275;-10.90069453;2.454707262;-5.651333607;47.88988537;7.506865303;-5.008717013;0.890013774;115.743053;107.3902482;206.11365;7.506865303;-17.48287089;-24.45590805;-97.97173275;-140.9516289;-168.8555896;6.178992262;3.384299765;3.827467403;45.29207958;77.86034949;120.5115809
0;-1.982868097;-9.97787716;-11.55844606;-4.589815589;36.44360181;-50.72526873;18.71110143;-6.293310186;-0.493607224;56.88645463;125.4366947;140.7652184;18.71110143;-18.02754089;-23.59335967;-118.3194712;-112.2433613;-144.554416;7.010340062;2.287500165;3.769922225;39.8663666;59.96450203;75.4136783
0;-0.135267012;-10.4434975;-10.28861317;-23.23111276;-28.46732658;45.24071761;20.68099588;-1.968559978;-1.823583622;87.29153435;128.9467797;209.6826247;20.68099588;-18.92355051;-20.9993589;-91.72896321;-141.4906597;-161.8501155;8.776485166;4.252130739;3.892780329;37.95790519;69.09201377;116.3415399
0;-2.083037025;-11.08369318;-11.26087181;-9.300669395;18.93243723;5.679979679;3.624065476;-6.410379331;-7.386351498;76.75296135;107.7348242;207.489637;3.624065476;-19.35326954;-14.68514333;-114.679395;-149.3750672;-145.3986661;4.206208565;3.170510284;1.990782627;46.20763228;68.98928546;126.2193274
0;-0.352130766;-9.403503968;-10.77021321;-5.014204751;-1.26121078;-36.09569249;18.8446211;-4.917300071;0.664976175;120.7097122;110.4588561;145.1272653;18.8446211;-17.02604353;-24.66806864;-101.3687461;-170.4655626;-141.2713083;8.120675865;2.58401269;4.424287819;41.53820242;76.68160387;88.18556813
0;-1.506185995;-10.32803721;-10.39091205;0.278414845;-14.13690296;43.12017471;6.942447392;-4.043632018;0.715727763;120.3487545;98.14685121;219.3151373;6.942447392;-19.2260127;-14.14683587;-81.43744672;-128.0561518;-174.4501378;5.429328759;3.752890775;3.009638372;42.39083115;65.2362574;127.9271735
0;-3.232298143;-10.11915737;-11.34409802;-4.139583919;36.12325562;-51.09386878;20.96291278;-4.919393951;-2.384819604;81.22607059;134.827653;114.790189;20.96291278;-17.64434152;-24.39392952;-124.4465273;-91.08699967;-141.9454177;8.671708866;2.627512459;3.809555412;41.99897258;59.70861083;73.16705081
0;-1.236859602;-9.953653442;-9.559555699;2.655537802;-9.845261999;56.64808312;6.256207101;-3.00007509;2.978569816;64.57773739;84.71532086;191.7140902;6.256207101;-19.18018885;-19.46556869;-126.092722;-95.77992746;-105.9936979;4.721082615;4.441483037;4.265706839;40.65089421;47.77199187;93.49831063
1;-0.094130301;-10.5956223;-10.73136595;28.63689729;-9.289096936;45.29301165;2.697583708;-5.64825534;-5.578209462;102.4398527;63.55117094;122.3295282;2.697583708;-14.51679344;-13.0797695;-59.02285527;-72.29295342;-87.65652697;2.356744471;2.295246913;1.65751578;45.7052057;40.45153785;66.33642685
1;-1.555780818;-9.632637855;-9.491585074;-24.40896405;3.74826585;-17.98757644;7.227199444;0.870307166;-0.283923213;83.91329132;100.4237631;72.72507355;7.227199444;-18.77646991;-13.23679643;-60.1591876;-65.21291302;-88.80000696;3.877618322;4.628929534;3.265398391;30.27360215;48.02614258;40.89704799
1;-2.079967989;-9.701919846;-9.284672861;29.11819982;-3.069120901;29.99062052;4.64194508;-3.434885223;-4.86955828;90.83994252;69.34141302;130.7951079;4.64194508;-18.91580532;-13.71929266;-94.34158239;-99.58920616;-114.8275613;3.42311354;4.145756104;2.413927711;56.89683321;51.09968869;80.58956511
1;-0.621645574;-8.92166817;-10.09918382;-51.4688034;15.90918168;-50.89844577;13.90145047;-0.756332769;-2.490280704;53.98925961;123.6536571;52.18409416;13.90145047;-20.69002523;-15.5009015;-122.4253626;-69.60654823;-103.9059485;5.374951258;3.855619424;3.161504473;36.77237855;58.36002378;31.06207122
1;-1.247155417;-10.09952269;-8.972658903;23.04595329;-28.55540009;54.59295613;4.299839831;-0.805985446;-2.891271521;127.3243908;140.9476201;162.6460752;4.299839831;-19.32743575;-15.46484173;-98.85617142;-101.4255973;-58.03411234;3.942590627;5.851344211;2.767231188;71.93989409;63.31227538;74.63916087
1;-1.261001123;-10.51846301;-10.90242409;-28.2012145;38.39000899;-34.70009263;10.87799918;-0.178115127;-6.586300898;93.29908008;143.4741247;143.9512068;10.87799918;-20.3647428;-15.4869048;-101.8771933;-42.45686529;-149.3352786;4.798444406;4.451090674;1.924283887;50.67182166;55.85359625;68.83249484
1;0.596552338;-9.801299559;-9.943880095;15.96654992;-9.30089607;36.25424505;7.174277423;-1.609075551;-1.350168099;125.0761417;93.25737322;176.1868064;7.174277423;-21.06449162;-13.75061097;-78.14736359;-98.01837;-106.386204;4.008546778;6.421017558;2.851378087;68.43786065;62.25957138;92.69320486
1;-1.375788364;-11.32102402;-10.61713399;17.90890154;-9.145018935;22.68773652;6.206759118;-1.423892362;-5.256958634;133.1808887;118.8648007;186.5837418;6.206759118;-19.88602192;-15.24533719;-109.0460078;-119.0490215;-147.8335483;6.354281749;4.477614863;2.155568013;77.65484554;69.63907444;124.1858413
1;-0.571028948;-9.577516042;-10.09159213;-50.39263856;30.00662662;-57.1879192;13.67767466;3.026764094;0.022135669;56.25579733;158.9472884;60.99756542;13.67767466;-20.15435711;-15.54938665;-120.3441208;-66.72721377;-133.5743981;6.243509159;6.148772438;3.753363633;45.69894453;68.90201439;53.30104464
1;-1.612732274;-10.17271689;-9.091533554;33.91404175;-14.11172615;58.38977718;9.822369618;-0.123834181;-0.74550106;138.8753112;191.5302247;176.7354963;9.822369618;-19.90841786;-15.99112202;-80.68515125;-195.8726668;-99.61566997;7.866307361;6.164940573;4.173810677;65.37527159;84.50637949;88.17718108
1;-1.664911226;-11.86319846;-11.01510475;-1.242212565;5.921131161;-15.35258382;11.09600507;4.376410945;-0.592147444;143.4826198;136.2216085;209.4706528;11.09600507;-20.48333925;-16.70666061;-117.7941096;-162.3094678;-154.8095685;7.212543288;5.79012268;3.503270842;80.61095858;72.4032385;125.4174077
1;0.317145879;-8.732233402;-10.31772752;-22.9672422;4.531561715;-14.05488928;12.91554494;0.614459268;1.137821585;96.85931687;189.0302033;117.4270001;12.91554494;-19.98520447;-19.37064057;-120.4633663;-109.8290553;-132.4361935;6.801480811;5.598924125;4.460188754;49.93126424;68.47156508;81.724616
1;-2.858609934;-10.28520573;-9.332779214;24.76053495;-9.057846408;36.44962478;8.961474856;0.092701754;1.338202373;174.1411744;161.1560517;209.9154085;8.961474856;-19.97197194;-17.29286999;-133.5054414;-201.3460965;-165.9408433;8.859648149;6.104153482;4.980281229;80.67774454;99.15426806;116.2916693
1;-1.858888913;-12.03907191;-10.60055206;-14.70556744;5.273771377;-22.10535025;15.12832926;6.352351787;-2.120234003;145.8814844;121.9636026;177.1321178;15.12832926;-20.67336548;-18.18980929;-109.1409714;-181.0932363;-164.4928247;7.667493353;6.891511929;3.435971364;72.50504633;84.14616433;108.8639458
1;0.549973886;-8.361472115;-10.05196347;-1.965471616;12.48008815;-3.045856799;9.321370565;5.656012902;-1.427021716;105.4515106;228.2247482;132.6693911;9.321370565;-20.51937323;-17.94943605;-85.43964913;-110.1568291;-146.9660873;6.518022017;6.133389777;4.222782162;54.69872947;73.32956459;84.76601639
1;-1.872853799;-10.33532559;-9.61022108;20.5064534;-26.46654332;30.79751357;7.937918222;-1.774972705;-0.170382107;141.410589;141.4109032;164.8304557;7.937918222;-19.91808973;-17.35735452;-133.2567834;-168.334467;-150.805898;6.786287307;5.928203791;4.031407668;71.46360382;84.97663081;107.0129074
1;-2.993006346;-10.82652044;-10.06335641;-28.49903809;36.61702956;-42.85673236;9.953841751;5.624285157;-1.731174652;59.13206652;164.7975045;160.8780009;9.953841751;-20.22417772;-16.89107011;-95.79978721;-183.9813431;-156.5479376;6.468800572;6.143649;3.110621997;48.61804215;80.50764961;86.85615903
1;0.756905819;-9.40595062;-10.61487917;11.43454559;3.921983649;25.38764936;9.337403703;5.632906097;-0.505912554;123.9922901;208.3283984;164.580088;9.337403703;-19.64150649;-17.24591203;-130.4679989;-106.1377091;-133.867907;6.028086693;7.413311133;3.679528853;66.36520841;84.81643261;85.24899444
1;-0.254071792;-10.9071013;-11.51633782;16.56402565;-18.78533408;20.96446414;7.640169192;2.929610031;-4.154875499;130.212892;111.8903211;179.9353129;7.640169192;-19.86323461;-15.55721035;-115.877548;-159.1144287;-141.6755439;6.791691928;6.042799415;2.551901103;81.21023608;57.78367652;116.7991069
1;-2.40481352;-9.738348451;-10.33093244;-35.46929709;37.30640107;-62.48029118;13.42103951;6.851612477;-0.110626418;121.649307;204.8489396;72.76004816;13.42103951;-20.55674242;-20.92263564;-117.4323419;-69.15427746;-153.3594965;8.191101319;6.399888489;4.383206581;56.70853347;61.546204;66.44549947
1;0.672758674;-9.922750772;-10.17895897;26.13481799;-12.83963309;52.45613767;9.976515782;0.029939953;0.115991308;150.9043322;204.7658763;207.5257806;9.976515782;-20.3203957;-16.89420274;-100.3899638;-120.7432326;-109.5413764;6.116230937;6.076749509;3.941859307;72.30619661;82.15050524;95.82589031
1;-1.817982876;-11.36777484;-10.86693826;14.43841468;-13.63164647;10.62596583;6.341170551;-2.517334953;-6.909273643;116.9034438;115.8527688;166.7289666;6.341170551;-18.49241318;-13.54754122;-93.59990962;-118.7704701;-139.8443244;6.156907936;4.028575822;1.71513223;67.58733204;64.47367733;111.7811446
1;-0.888373369;-9.645226394;-10.04219508;-38.74052311;31.0558937;-58.0173907;10.45024705;5.708941281;-2.283693062;61.10054882;239.2408823;70.93448956;10.45024705;-20.81164165;-20.7232185;-111.3926927;-145.2478415;-202.7768173;6.497482327;6.706586688;4.359525346;42.73849268;86.84252783;67.31752186
1;-0.179908481;-9.396292401;-10.23630336;21.35213008;-17.91086804;56.82897655;9.860011223;4.33116365;-1.530939188;130.1473929;125.493867;189.8124774;9.860011223;-20.01117367;-20.27678415;-93.4128303;-165.9569848;-82.97847497;8.046453195;7.110309419;3.997685228;59.49636245;72.40160174;82.3052911
1;-1.697706578;-12.33923635;-10.8385606;10.81067787;5.652342576;5.16224824;6.509792109;-5.867913405;-6.122463203;129.1250069;120.3182326;167.1902224;6.509792109;-20.16082097;-15.88552344;-92.39036614;-118.3075487;-174.303631;6.126560158;4.013914818;2.784103653;74.95644398;61.76143587;119.1505428
1;-0.118819646;-9.253879945;-10.54362096;-40.78418926;15.80504461;-57.95256849;8.916030126;2.911416996;0.481147051;75.11171298;133.9443263;87.37639886;8.916030126;-19.64046391;-18.78986556;-99.03924168;-68.17512599;-160.6698796;4.635614531;5.820120968;4.095869994;45.28341837;51.89557954;67.79697341
1;-0.950097623;-9.341151815;-9.857010899;35.91253462;-13.70243598;62.09079876;10.05048429;-0.455172419;-0.418899227;154.206767;179.9093239;217.5527834;10.05048429;-20.02607048;-15.55002612;-65.6960298;-142.4857208;-95.42799307;8.491238884;6.101612453;3.765850733;61.62679735;77.58969198;89.59823024
1;-1.881301983;-12.18516299;-10.43755034;10.13258567;3.276546013;3.588738465;11.06927716;-2.86162208;-2.670602805;142.343678;94.1202736;203.9914527;11.06927716;-20.01390759;-14.79613358;-91.65231384;-174.2276487;-146.6543215;6.889649316;4.834867496;3.041853871;82.42637921;75.9506295;129.9911035
1;-1.176771022;-9.590790248;-10.00314666;-39.80460541;28.23265782;-61.88439899;11.90063407;-0.220685837;-3.826575501;65.45932321;163.9000264;90.85408978;11.90063407;-19.44240954;-15.71716312;-90.3370612;-74.62805397;-126.6694351;6.064810474;4.589439403;3.015297054;36.44464444;52.55745754;55.05117895
1;0.02127396;-9.993022874;-10.21269633;18.27210679;-10.61495532;46.5132453;11.38558919;0.252110137;-1.490296705;143.2706428;177.3856864;179.0372334;11.38558919;-20.06507912;-17.18484824;-109.7707577;-131.7610758;-77.51969783;6.598315217;6.010219276;3.442748483;70.1164881;77.01964549;84.37113427
1;-1.667403273;-11.20143873;-10.68776791;22.97898648;-9.156461738;26.57071084;7.24192119;-3.866555062;-3.49028344;145.727937;88.22132677;186.9711905;7.24192119;-19.96800209;-16.03536994;-92.81719564;-114.1780888;-139.9133242;6.224463801;4.323437783;2.832412468;71.84459014;57.8634141;109.7382088
1;-1.828070971;-9.444734139;-9.727523214;-42.27139899;26.34737978;-56.21893596;8.370098952;-0.121454605;-2.390036929;67.0629613;143.9326689;26.90261445;8.370098952;-20.4781197;-16.10485957;-107.6596799;-59.63683215;-120.6139587;4.68938151;5.006894594;3.378023306;34.72680155;53.11185931;45.72595955
1;-0.248188513;-10.11211396;-10.27728374;19.36403912;-9.861785012;40.0959072;9.616596349;-0.524507407;-1.157580039;142.5880081;222.8201908;172.6245968;9.616596349;-18.69012408;-16.15680573;-101.6159025;-134.2657339;-91.03861397;5.738565494;5.345393735;3.375814839;70.45982469;81.94118851;84.12278614
1;-2.012576829;-11.17917044;-10.62604529;26.1691396;-16.27724066;24.79473063;5.719370389;-1.981737644;-2.563409592;150.3680341;88.32178424;179.4375485;5.719370389;-20.04750635;-16.97982857;-66.05785025;-177.9221098;-120.2226186;6.247281941;4.576648779;2.751602296;70.65571622;72.12853085;116.8362874
1;-2.435014958;-9.894450608;-9.771476901;-39.94936602;43.25906858;-69.26418878;4.274760752;0.069426273;-2.155578782;87.13764204;196.3640439;62.41602817;4.274760752;-19.26168546;-16.97701348;-118.9871183;-54.35727009;-121.4541283;4.372015233;4.230500558;3.425663994;47.65386797;54.22998896;44.01015381
1;0.784993692;-9.748836555;-10.49348347;17.94303024;-15.78378852;50.24756268;10.66046173;5.558219665;2.508914313;121.8861556;190.1415021;192.6043326;10.66046173;-19.52047271;-17.85292172;-96.67307536;-122.164053;-171.4945715;7.119914861;6.958765055;4.815615326;72.06478012;78.54529918;103.5291985
1;-1.707305895;-11.77521466;-10.96187315;13.61173826;-8.18411286;17.09498162;7.667569423;-3.970273597;-4.222599561;140.8996178;124.5543574;189.1095727;7.667569423;-19.89489619;-14.30901511;-88.33021661;-178.575154;-147.1707019;6.843131317;4.541054183;2.394213798;73.47180603;76.35471766;118.9096448
