acc_x;acc_y;acc_z;gyro_x;gyro_y;gyro_z;label
1.82;-13.72;-11.65;91.6;-35.68;103.87;2
3.37;-13;-13.38;76.24;9.58;95.99;2
3.8;-11.55;-12.92;60.28;33.74;99.16;2
4.89;-12.18;-12.52;51.84;26.67;104.81;2
5.96;-12.74;-12.21;61.81;-14.62;102.03;2
5.96;-12.07;-12.46;83.72;-60.59;89.73;2
4.1;-10.51;-12.43;92.56;-74.12;74.05;2
0.92;-10.44;-12.13;83.47;-69.15;62.47;2
-1.84;-10.78;-11.19;66.91;-54.34;64.14;2
-3.31;-11.7;-10.08;53.61;-15.2;76.08;2
-1.99;-12.28;-9.39;48.75;1.24;90.08;2
0.91;-11.99;-10.22;47.08;-7.75;91.49;2
2.5;-11.84;-11.26;43.08;-8.3;85.31;2
2.74;-11.13;-11.59;39.04;-16.37;79.34;2
2.74;-10.66;-11.65;35.71;-23.23;75.12;2
2.42;-9.92;-11.15;32.45;-29.98;73.07;2
2.04;-9.56;-10.45;30.89;-36.46;69.55;2
1.55;-9.03;-9.73;29.89;-43.52;65.12;2
1.43;-8.56;-9.5;27.8;-44.65;61.76;2
1.53;-7.87;-9.42;22.87;-44.1;57.76;2
1.79;-7.33;-9.64;16.98;-42.1;52.72;2
2.32;-6.94;-9.67;12.15;-38.68;45.49;2
2.69;-6.65;-9.61;8.01;-34.47;36.37;2
3;-6.36;-9.61;5.67;-28.08;26.5;2
2.94;-6.3;-9.52;3.66;-21.69;16.5;2
2.44;-6.41;-9.12;1.53;-16.54;6.24;2
2;-6.55;-8.77;1.28;-12.57;-2.17;2
1.23;-6.5;-8.72;2.07;-10.76;-9.98;2
0.63;-6.33;-8.76;1.5;-10.68;-16.13;2
-0.08;-6.18;-9.11;-3.21;-13.37;-21.27;2
-0.8;-5.98;-9.42;-12.92;-17.29;-23.82;2
-1.44;-5.97;-9.51;-25.4;-20.43;-25.51;2
-2.39;-6.21;-9.29;-38.57;-21.37;-27.43;2
-3.32;-6.71;-8.7;-49.15;-17.46;-28.75;2
-4.12;-7.63;-8.13;-58.19;-7.63;-33.27;2
-5;-8.98;-7.6;-65.6;3.67;-41.86;2
-6.13;-10.77;-6.96;-70.62;9.64;-55.24;2
-6.63;-12.05;-6.91;-67.71;16.71;-66.7;2
-7.24;-12.43;-7.27;-60.06;19.66;-69.96;2
-7.89;-11.86;-7.58;-50.61;3.96;-67.94;2
-7.91;-11.09;-8;-39.74;-18.37;-56.06;2
-6.31;-10.46;-9.16;-31.86;-28.26;-40.27;2
-3.77;-10.52;-10.91;-28.36;-18.38;-25.45;2
-0.16;-11.5;-12.83;-34.18;6.44;-18.63;2
3.47;-13.63;-14.27;-46.52;45.57;-15.15;2
5.8;-15.44;-13.57;-66.18;63.9;-18.92;2
5.59;-13.72;-7.78;-85.73;25.44;-21.72;2
2.49;-14.42;4;-60.62;-43.36;-22.63;2
0.84;-13.36;-1.94;6.22;-36.31;-15.78;2
2.18;-10.73;-7.1;28.27;-12.12;-11.96;2
4.28;-8.83;-12.32;27.71;39.93;-11.06;2
5.34;-6.83;-15.41;4.78;94.98;-16.16;2
4.79;-5;-15.76;-33.88;131.54;-23.57;2
3.64;-4.52;-13.27;-69.04;134.45;-32.6;2
3.05;-5.73;-9.47;-77.77;125.16;-41.21;2
3.11;-8.45;-7.59;-48.88;119.37;-52.7;2
3.7;-11.14;-9.54;-8.11;108.35;-62.31;2
3.7;-13.19;-13.35;16.01;89.69;-72.84;2
1.5;-13.07;-16.46;17.7;66.03;-85.29;2
-2.19;-11.74;-17.48;1.01;36.12;-91.09;2
-5.58;-10.19;-16.31;-23.07;14.09;-82.98;2
-6.92;-9.36;-14.6;-43.28;10.14;-65.9;2
-5.61;-8.63;-12.83;-52.3;-8.48;-51.56;2
-2.78;-8.59;-11.66;-53.5;-31.01;-49.58;2
-0.77;-8.61;-10.31;-50.9;-43.36;-51.37;2
0.18;-9;-8.84;-45.39;-48.36;-50.45;2
0.39;-9.87;-8.02;-36.17;-45.7;-45.72;2
0.28;-10.17;-8.34;-24.99;-28.7;-41.93;2
-0.51;-9.5;-9.38;-16.61;-8.15;-37.23;2
-0.77;-8.88;-10.94;-12.25;8.48;-32.4;2
-0.48;-8.81;-12.45;-12.02;26.44;-29.23;2
-0.14;-9.27;-13.55;-15.99;43.65;-26.75;2
0.58;-9.85;-14.01;-24.92;54.16;-24.64;2
1.52;-9.97;-13.62;-36.77;51.42;-24.91;2
2.28;-9.95;-12.85;-45.53;38.08;-29.33;2
1.59;-10.49;-11.38;-43.47;16.03;-36.54;2
-0.21;-10.66;-10.78;-32.84;0.75;-43.62;2
-1.74;-10.33;-10.63;-19.9;2.53;-40.77;2
-2.88;-9.83;-10.82;-12.43;-3.37;-35.06;2
-3.01;-9.51;-11.34;-14.18;-7.44;-30.79;2
-3.01;-9.4;-11.28;-23.49;-14.08;-25.06;2
-2.29;-9.6;-10.62;-32.87;-15.78;-20.66;2
-1.27;-10.04;-9.1;-32.16;-13.79;-19.88;2
-0.42;-10.48;-8.08;-18.44;-5.99;-22.49;2
-0.3;-10.18;-8.42;-5.86;2.09;-22.24;2
-0.65;-9.9;-8.67;2.44;6.89;-18.5;2
-1.03;-9.51;-8.72;10.14;13.11;-13.04;2
-2.15;-9.36;-8.82;17.52;17.24;-5.27;2
-3.7;-9.36;-8.96;25.02;21.99;7.04;2
-4.99;-9.59;-8.85;34.31;30.6;23.98;2
-5.69;-10.66;-8.77;45.05;35.15;41.96;2
-6.09;-11.46;-8.4;57.95;28.81;59.38;2
-6.37;-11.78;-8.03;69.85;9.79;74.95;2
-6.26;-11.89;-7.75;75.26;-17.28;91.22;2
-5.56;-12.33;-7.44;78.82;-42.17;103.99;2
-3.74;-13.16;-8.15;90.29;-53.98;113.54;2
-0.83;-13.1;-10;91.5;-43.17;119.31;2
1.1;-13.11;-11.03;81.65;-27.78;120.03;2
2.31;-13.44;-11.75;66.08;-6.57;117.68;2
3.24;-14.39;-12.42;55.13;14.99;113.27;2
3.59;-15.34;-13.06;65.83;16.77;110.24;2
3.47;-14.77;-13.07;89.37;-8.53;109.25;2
2.88;-13.65;-13.2;103.91;-41.84;98.83;2
0.84;-12.78;-13.01;99.3;-66.6;88.47;2
-1.84;-12.73;-12.89;85.51;-76.48;86.63;2
-3.28;-13.63;-12.13;68.78;-47.01;95.27;2
-2.19;-13.74;-11.42;59.4;-6.09;113.27;2
-1.12;-13.9;-9.43;59.76;-14.18;125.25;2
1.15;-13.6;-9.59;66.78;-26.86;114.18;2
1.78;-12.14;-10.13;69.44;-36.26;105.57;2
1.84;-10.52;-10.62;66.16;-51.69;103.22;2
2.15;-9.35;-10.51;61.08;-57.25;100.41;2
2.47;-8.14;-10.08;55.4;-63.68;94.39;2
2.01;-7.28;-9.61;52.48;-61.19;88.43;2
1.84;-6.66;-9.88;46.61;-55.71;80.83;2
1.46;-6.18;-10.14;37.56;-51.35;74.15;2
1.62;-5.77;-10.2;27.22;-48.15;67.41;2
2.08;-5.5;-10.19;18.29;-46.17;58.98;2
2.42;-5.44;-10.39;11.37;-44.79;49.3;2
2.86;-5.37;-10.59;3.63;-42.88;38.89;2
3.02;-5.22;-10.81;-4.45;-40.42;26.31;2
2.98;-4.99;-10.93;-11.5;-38.52;13.2;2
2.57;-4.7;-10.61;-18;-39.49;-0.44;2
1.93;-4.74;-10.57;-26.08;-37.66;-9.88;2
1.64;-4.65;-10.28;-34.73;-28.67;-14.68;2
0.96;-4.46;-9.61;-46.42;-20.43;-21.61;2
-0.66;-4.93;-8.26;-60.4;-15.62;-30.55;2
-2.64;-6.15;-6.63;-70.91;-13;-38.58;2
-5.03;-7.72;-5.49;-77.05;-12.61;-50.53;2
-6.93;-9.16;-5.19;-77.05;-2.64;-57.88;2
-8.14;-10.34;-5.39;-73.73;14.83;-59.63;2
-8.3;-10.92;-6.79;-67.05;36.32;-56.71;2
-7.17;-10.72;-8.77;-58.36;57.48;-48.22;2
-4.61;-9.75;-9.65;-51.4;73.27;-41.29;2
-2.6;-8.27;-10.59;-45.04;101.06;-32.14;2
-1.96;-6.54;-10.85;-49.13;121.32;-18.49;2
-0.04;-5.8;-10.88;-74.73;120.72;-9.85;2
2.52;-9.1;-8.61;-113.47;90.51;-16.99;2
1.02;-17.33;-0.62;-95.55;88.06;-30.67;2
-5.48;-19.55;0.11;-1.45;72.13;-23.41;2
-8.69;-15.68;-7.14;54.13;-15.19;-14.21;2
-6.19;-10.01;-12.73;37.83;-45.7;15.63;2
-0.07;-4.99;-12.54;-16.39;-15.28;39.47;2
5.41;-4.09;-10.82;-45.96;3.04;24.6;2
7.76;-5.38;-9.5;-33.05;15.66;-9.82;2
5.41;-7.21;-10.08;-13.89;25.47;-44.67;2
1.82;-9.01;-11.55;-6.85;42.39;-61.59;2
0.24;-10.5;-13.26;-8.6;57.48;-68.55;2
-0.8;-11.97;-14.4;-16.6;53.19;-72.65;2
-1.8;-13.3;-14.52;-31.02;37.21;-72.19;2
-2.54;-14.48;-14.13;-44.78;24.83;-67.96;2
-3.03;-14.56;-13.22;-49.53;19.35;-63.06;2
-2.91;-13.66;-12.42;-45.52;10.1;-62.37;2
-2.49;-12.8;-12.05;-41.51;-2.41;-64.04;2
-1.73;-12;-12.35;-41.31;-11.8;-66.05;2
-0.71;-11.38;-12.74;-45.27;-12.11;-69.93;2
0.35;-11.2;-13;-52.33;-6.21;-77.55;2
0.71;-11.54;-13.16;-60.66;2.14;-85.54;2
0.35;-12.43;-12.8;-67.1;1.65;-94.15;2
-0.56;-13.09;-11.93;-67.37;-1.16;-99.02;2
-1.8;-13.09;-10.84;-61.92;-8.36;-100.69;2
-2.79;-12.75;-9.53;-51.28;-12.48;-98.18;2
-3.71;-12.1;-8.94;-40.34;-4.25;-91.46;2
-4.89;-11.13;-8.43;-33.26;2.98;-79.69;2
-5.36;-9.94;-7.91;-31.84;8.51;-67.17;2
-5.47;-8.97;-7.11;-28.86;18.8;-55.38;2
-6.17;-8.7;-6.52;-22.1;26.38;-46.46;2
-7.68;-8.95;-6;-12.8;31.72;-35.99;2
-9.37;-8.76;-5.38;1.7;43.8;-21.09;2
-9.91;-7.62;-4.42;19.36;62.13;0.08;2
-9.28;-6.24;-3.67;40.49;68.74;23.08;2
-8.92;-5.02;-4.02;63.61;49.05;40.9;2
-8.3;-3.93;-4.78;80.23;19.22;55.59;2
-6.47;-3.22;-5.64;88.97;0.49;71.98;2
-4.21;-3.34;-6.82;93.98;-2.41;84.79;2
-1.59;-4.33;-8.25;91.73;19.83;92.87;2
-1.11;-5.12;-8.38;82.4;28.59;88.19;2
-2.05;-6.35;-8.29;80.92;6.53;98.92;2
-3.26;-9.39;-9.27;89.26;-29.32;118.86;2
-4.94;-13.65;-10.18;99.87;-87.06;136.45;2
-6.52;-19.55;-11.28;99.38;-151.78;150.92;2
-2.96;-19.55;-14.7;89.24;-144.7;158.57;2
-1.75;-19.55;-12.38;103.42;-99.97;159.43;2
0.89;-19.55;-12.14;127.56;-71.87;153.92;2
3.82;-19.55;-12.71;129.32;-10.84;132.77;2
2.61;-17.5;-11.49;121.5;1.66;119.25;2
0.78;-16.2;-10.58;109.41;-1.56;121.95;2
-0.4;-15.46;-9.45;98.92;-4.81;120.86;2
-1.55;-14.55;-8.87;93.72;-0.75;116.63;2
-2.14;-13.83;-9.06;84.45;-4.68;106.54;2
-1.6;-13.03;-9.96;70.75;-7.41;93.54;2
-1.24;-11.62;-10.26;54.77;-17.92;80.75;2
-1;-10.53;-10.06;40.7;-35.5;69.55;2
-0.2;-9.21;-10.42;27.3;-51.93;58.18;2
0.52;-8.17;-10.86;13.48;-70.49;43.51;2
1.06;-7.2;-11.32;2.02;-90.91;25.9;2
1.83;-5.88;-12.04;-7.3;-105.83;5.99;2
2.17;-4.57;-12.5;-18.65;-111.87;-12.31;2
2.29;-3.3;-12.57;-33.26;-109.41;-27.92;2
2.3;-2.25;-12.54;-51.21;-96.93;-42.43;2
3.02;-1.4;-12.58;-71.4;-63.91;-54.06;2
3.85;-0.38;-11.8;-88.01;-15.1;-63.44;2
3.8;-0.47;-11.15;-98.08;39.63;-69.33;2
3.52;-1.18;-10.69;-108.08;82.41;-81.62;2
2.78;-2.4;-9.83;-119.96;97.62;-91.43;2
1.75;-3.91;-8.04;-126.66;84.3;-93.17;2
0.45;-5.81;-5.29;-116.35;58.26;-89.73;2
-1.46;-7.78;-3.72;-87.5;35.9;-84.97;2
-3.81;-9.38;-3.39;-51.64;33.01;-75.17;2
-6.6;-10.74;-4.74;-14.99;69.55;-52.72;2
-9.15;-8.93;-8.87;-5.5;127.82;-18.17;2
-3.34;-5.39;-13.16;-33.63;197.45;30.67;2
5.33;-1.62;-13.54;-92.66;168.28;50.78;2
11.8;-2.32;-10.06;-137.66;125.19;51.04;2
18.51;-8.37;-3.78;-92.19;116.72;-5.22;2
9.51;-11.63;-8.99;-14.46;139.26;-75.69;2
0.09;-15.86;-14.06;17.76;64.52;-116.33;2
-3.7;-19.55;-15.29;-0.11;-31.55;-131.32;2
-7.58;-19.55;-10.36;-47.58;-30.83;-110.95;2
-12.22;-19.55;-7.81;-9.66;27.17;-35.47;2
-7.49;-15.04;-9.67;39.79;32.15;-8.3;2
-2.35;-10.16;-12.67;29.11;0.87;4.02;2
2.15;-7.86;-13.48;-10.8;-16.82;3.68;2
4.58;-7.56;-12.52;-39.46;-12.91;-8.37;2
6.23;-9.53;-12.19;-38.73;14.16;-32.29;2
5.61;-11.89;-13.15;-25.73;35.25;-59.52;2
4.16;-14.27;-14.93;-18.63;38.6;-82.63;2
2.59;-16.45;-15.92;-25.63;30.82;-106.4;2
-0.84;-16.96;-15.5;-40.89;19.41;-118.88;2
-3.78;-16.09;-13.85;-59.63;28.22;-114.69;2
-4.85;-14.11;-11.79;-72.92;36.79;-101.24;2
-3.91;-11.89;-10.17;-76.98;30.36;-83.59;2
-2.08;-11.08;-10.1;-73.03;15.2;-74.89;2
-1.38;-11.57;-10.17;-71.58;14.18;-77.9;2
-1.76;-11.95;-10.23;-73.47;29.44;-85.82;2
-3.07;-12.33;-9.33;-70.22;48.36;-92.63;2
-5.8;-12.76;-8.83;-56.24;55.5;-89.48;2
-7.73;-12.82;-8.39;-36.09;69.72;-83.59;2
-9.04;-11.42;-8.07;-18.58;85.32;-73.28;2
-10.22;-9.84;-8.62;-7.15;75.12;-56.33;2
-11.76;-8.71;-8.77;-4.28;54.01;-42.28;2
-13.55;-7.23;-7.33;-3.5;32.03;-27.51;2
-14.47;-5.46;-5.43;9.55;13.79;-7.38;2
-13.61;-3.73;-3.37;35.34;-0.65;17.56;2
-10.54;-2.77;-2.44;66.09;-33.74;41.82;2
-6.48;-2.33;-5.46;79.3;-54.56;58.41;2
-4.57;-2.14;-7.48;81.03;-50.6;71.3;2
-3.66;-2.42;-9.56;77.46;-41.56;84.04;2
-3.15;-3.31;-10.53;78.06;-48.68;93.92;2
-2.65;-5.59;-10.92;75.03;-57.59;112.41;2
-2.26;-8.49;-10.29;64.99;-53.07;131.82;2
-2.94;-12.34;-9.55;62.85;-46.52;139.18;2
-5.55;-15.57;-6.77;79.4;-95.51;129.48;2
-6.79;-19.55;-8.06;100.16;-171.48;127.15;2
-2.93;-19.55;-12.52;120.82;-168.05;138.13;2
-1.4;-19.48;-13.01;136.49;-168.09;149.73;2
0.81;-19.17;-14.87;130.27;-175.05;154.7;2
2.81;-19.55;-14.16;115.82;-119.04;149.6;2
3.41;-19.55;-9.81;118.7;-54.59;138.5;2
3.08;-19.35;-7.76;136.76;-28.42;141.24;2
1.82;-16.85;-8.24;139.24;-17.97;135.9;2
0.43;-14.7;-9.15;126.78;-4.73;127.21;2
-0.6;-13.52;-8.94;115.23;13.29;129.06;2
-0.23;-13.22;-8.81;104.85;20.29;126.99;2
-0.63;-12.5;-8.39;95.29;10.37;119.81;2
-1.21;-11.8;-8.3;85.33;-3;115.19;2
-1.71;-11;-8.94;73.27;-24.02;110.66;2
-1.87;-10.17;-10.02;56.52;-48.56;102.21;2
-1.79;-8.86;-10.48;35.49;-75.21;86.53;2
-1.5;-7.64;-10.58;20.92;-101.52;67.75;2
-0.87;-6.37;-10.89;12.94;-125.23;43.81;2
-0.06;-4.46;-11.22;4.57;-141.89;19.65;2
0.93;-2.37;-11.73;-8.18;-147.87;-3.51;2
2.07;-0.94;-12.41;-25.37;-135.5;-23.17;2
3.13;-0.03;-12.94;-48.08;-102.1;-40.1;2
2.75;0.39;-13.34;-72.34;-52.61;-47.52;2
4.04;0.23;-13.43;-91.97;2.78;-54.17;2
5.05;0.32;-13.8;-111.15;56.12;-68.35;2
5.08;-0.16;-13.22;-131.54;92.2;-87.1;2
3.71;-1.34;-12.07;-151.45;99.51;-95.24;2
2.33;-3.28;-10.07;-165.96;85.61;-96.83;2
1.32;-5.55;-6.96;-162.92;68.11;-93.56;2
-0.12;-7.97;-3.71;-130.44;63.99;-91.78;2
-2.09;-9.21;-4.09;-85.93;85.9;-87.11;2
-4.31;-9.05;-6.28;-54.72;122.77;-71.07;2
-4.21;-6.92;-7.6;-45.6;146.74;-43.68;2
-0.93;-4.61;-5.86;-53.03;150.58;-21.1;2
2.24;-2.4;-0.98;-51.28;131.22;-18.13;2
3.22;-1.76;-10.16;-41.15;79.9;-22.12;2
2.66;-1.69;-15.91;-40.44;99.33;-24.68;2
1.57;-4.9;-17.27;-38.6;119.1;-31.15;2
-0.2;-10.5;-17.29;-25.53;43.15;-50.75;2
1.19;-18.13;-18.26;-61.29;-41.32;-83.77;2
2.03;-19.55;-19.59;-131.02;-51.1;-122;2
-8.7;-19.55;-3.33;-155.56;18.65;-109.44;2
-19.7;-19.55;9.54;27.01;74.82;-8.81;2
-3.87;-13.85;-3.43;85.21;-43.62;15.23;2
3.68;-9.95;-13.77;44.19;-63.84;0.55;2
5.48;-9.41;-15.46;15.49;-66.33;-5.95;2
7.34;-9.39;-16.58;-5.41;-32.4;-24.51;2
7.46;-10.41;-17.59;-23.56;5.25;-54.33;2
7.52;-11.81;-19.08;-41.13;58.7;-87.56;2
5.07;-13.79;-18.36;-54.44;77.43;-112.87;2
1;-16.98;-17.6;-65.7;79.09;-126.31;2
-3.6;-19.24;-16.8;-83.78;76.77;-126.98;2
-7.57;-19.55;-15.16;-108.98;69.25;-117.58;2
-9.52;-17.57;-10.69;-122.02;64.95;-102;2
-8.27;-15.21;-5.08;-110.73;35.9;-86.52;2
-6.24;-14.37;-3.28;-74.18;9.89;-79.15;2
-5.61;-14.13;-5.19;-45.12;-3.59;-76.96;2
-6.18;-13.26;-7.36;-35.68;0.43;-68.16;2
-6.52;-12.12;-7.88;-37.28;18.22;-57.5;2
-6.73;-11.48;-7.09;-38.68;37.92;-50.87;2
-7.86;-10.58;-5.27;-26.84;46.54;-50.85;2
-9.67;-8.71;-4.55;-0.64;56.82;-43.05;2
-10.33;-6.72;-4.87;20.86;61.94;-27.4;2
-10.97;-4.76;-5.46;33.95;48.27;-8.73;2
-11.64;-2.97;-5.94;42.82;20.02;14.74;2
-11.05;-0.97;-6.31;51.43;-16.41;36.26;2
-10.16;1.06;-6.05;65.7;-51.95;57.83;2
-7.65;0.65;-6.79;74.98;-66.35;78.14;2
-3.11;-1.19;-7.78;69.53;-40.36;88.66;2
-0.04;-3.63;-7.4;60.76;-8.08;82.93;2
0;-4.61;-4.36;72.69;-33.01;81.7;2
-0.1;-6.13;-5.6;106.42;-67.65;89.06;2
-0.58;-7.96;-8.46;126.67;-96.3;97.08;2
-2.16;-10.45;-11.37;130.14;-120.46;110.86;2
-5.57;-14.9;-13;117.72;-149.51;140.67;2
-4.97;-19.55;-13.23;84.69;-159.75;163.74;2
0.39;-19.55;-12.17;69.71;-100.33;158.27;2
2.86;-19.55;-9.02;107.18;-57.55;151;2
3.63;-19.55;-11.91;134.17;-19.33;136.37;2
3.64;-17.5;-12.43;130.4;-8.35;116.59;2
0.94;-16.56;-10.96;118.78;-9.84;111.31;2
-2.18;-16.08;-8.94;114.78;-2.68;112.54;2
-3.33;-16.46;-8;112.89;8.03;119.7;2
-3.11;-17.17;-8.61;104.44;9.74;122.42;2
-2.78;-16.62;-9.08;88.54;3.09;118.5;2
-2.75;-14.96;-8.16;75.16;-12.33;111.02;2
-2.31;-13.03;-7.45;67.03;-38.97;101.25;2
-1.42;-10.9;-7.81;57.87;-69.78;86.43;2
-1.3;-9.26;-9.03;40.89;-92.56;67.53;2
-0.86;-8.07;-10.13;19.53;-104.75;46.12;2
-0.33;-7.08;-11.02;0.21;-108.33;25.08;2
0.49;-6.39;-11.83;-16.42;-105.26;5.01;2
1.22;-5.68;-11.95;-29.28;-103.04;-14.25;2
2.14;-5.32;-11.71;-40.84;-101.72;-31.07;2
3.29;-5;-11.67;-53.31;-90.36;-44.41;2
4.27;-4.34;-12.11;-66.5;-60.7;-54.81;2
4.97;-3.17;-12.47;-80.79;-18.46;-59.77;2
5.88;-2.12;-12.49;-95.28;29.78;-62.17;2
6.64;-1.59;-12.52;-106.92;70.76;-69.88;2
4.81;-1.76;-12.88;-119.46;109.96;-65.04;2
4.89;-1.61;-11.08;-121.79;124.76;-76.82;2
2.67;-1.87;-9.62;-123.35;120.71;-88.02;2
0.21;-2.32;-8.25;-125.42;99.9;-91.62;2
-1.63;-3.74;-5.7;-117.9;66.38;-84.62;2
-2.41;-4.79;-3.35;-95.48;38.99;-76.08;2
-3.53;-6.34;-3.08;-64.35;29.32;-64.35;2
-4.77;-6.75;-4.57;-35.18;40.28;-50.45;2
-4.91;-6.55;-7.13;-12.95;72.84;-32.73;2
-4.5;-6.16;-7.56;-3.2;122.93;-8.91;2
-3.76;-3.74;-3.9;-11.47;180.77;11.8;2
1.64;-2.79;-8.86;-15.33;158.43;26.28;2
5.95;-3.13;-14.37;-15.76;109.59;23.92;2
9.06;-5.05;-15.01;-30.37;125.26;17.56;2
11.49;-11.22;-18.06;-38.69;142.38;-20.7;2
10.04;-18.54;-20.31;-33.15;79.41;-100.98;2
6.85;-19.55;-19.13;-44.88;10.07;-161.06;2
-1.6;-19.55;-15.5;-71.3;-148.59;-157.62;2
-11.57;-19.55;-10.26;-107.47;-165.68;-114.33;2
-19.7;-19.55;-6.07;-101.21;4.32;-42.01;2
-8.66;-17.43;-6.14;-39.75;14.13;6.16;2
2.14;-16.78;-8.2;-11.35;-38.74;-3.7;2
5.76;-13.89;-10.05;-3.02;-72.91;-29.05;2
5.61;-12.3;-14.18;-6.47;-64.27;-51.75;2
5.65;-12.68;-17.42;-27.96;-22.91;-67.25;2
6.13;-13.25;-19.73;-56.79;38.07;-76.39;2
5.23;-15.48;-19.39;-92.59;80.9;-91.11;2
2.7;-18.78;-16.98;-124.6;94.6;-107.79;2
-2.02;-19.55;-11.84;-131.32;122.06;-110.12;2
-5.33;-19.55;-6.91;-92.59;134.63;-105.45;2
-7.7;-18.96;-6.17;-45.48;107.41;-100.58;2
-9.54;-14.87;-8.51;-32.47;75.78;-91.76;2
-11.13;-13.34;-9.97;-38.5;62.77;-73.55;2
-10.79;-11.83;-8.67;-43.61;56.08;-50.59;2
-8.95;-10.42;-6.2;-34.32;46.59;-31.14;2
-7.92;-9.26;-4.54;-8.92;14.93;-27.76;2
-8.17;-7.86;-5.18;17.24;-5.75;-30.54;2
-8.91;-5.75;-6.42;26.62;-1.26;-22.97;2
-8.69;-3.78;-7.41;24.88;7.25;-7.47;2
-8.07;-2.77;-7.77;23.41;7.16;6.65;2
-7.48;-1.91;-8.15;28.34;-8.88;22.12;2
-7.82;-1.35;-8.19;43.81;-31.93;36.05;2
-6.38;-1.77;-8.55;53.69;-35.44;45.96;2
-6.5;-1.45;-7.81;59.71;-35.55;62.63;2
-5.97;-2.25;-7.49;63.11;-36.68;81.79;2
-4.2;-2.94;-6.59;67.98;-35.1;92.31;2
-2.58;-4.34;-6.12;75.94;-37.14;92.5;2
-2.4;-5.15;-6.27;82.02;-51.14;96.41;2
-2.04;-6.84;-7.82;91.55;-66.7;105.41;2
-1.82;-9.58;-9.31;100.23;-106.08;115.95;2
-3.94;-14.01;-10.84;103.6;-159.17;131.43;2
-5.37;-19.55;-11.57;99.75;-184.2;158.13;2
-1.91;-19.55;-11.62;89.66;-160.75;162.14;2
1.66;-19.55;-8.18;121.33;-139.96;162.13;2
3.14;-19.55;-10.74;155.85;-96.31;152.46;2
4.01;-19.55;-12.11;161.97;-55.34;130.95;2
2.28;-18.54;-10.86;159.76;-26.88;128.88;2
2.88;-19.55;-9.58;151.29;11.57;130.53;2
1.19;-19.19;-9.1;139.21;36.51;130.72;2
-1.38;-18.2;-9.27;128.98;45.81;131.29;2
-2.61;-17.45;-9.21;119.09;46.08;133.33;2
-3.26;-16.62;-8.43;109.91;37.57;131.28;2
-3.02;-15.23;-8.18;102.95;18.36;125.05;2
-2.25;-13.07;-8.75;91.64;-13.61;114.55;2
-0.99;-10.67;-9.46;74.62;-34.91;99.24;2
-0.77;-8.82;-10;55.47;-54.61;75.42;2
-0.75;-7.63;-10.48;36.77;-66.2;50.39;2
-0.55;-7.08;-10.74;20.62;-76.3;26.77;2
-0.19;-6.92;-10.96;9.9;-88.99;5.34;2
-0.07;-6.52;-10.78;5.91;-108.54;-11.27;2
0.25;-5.6;-11.14;2.72;-131.77;-24.91;2
1.52;-4.37;-12.12;-8;-139.93;-34.69;2
3.65;-2.67;-12.96;-23.8;-119.02;-41.72;2
5.86;-0.58;-13.83;-46.54;-68.31;-47.85;2
7.31;1.15;-14.48;-72.05;1.56;-52.17;2
6.53;1.77;-14.36;-96.98;70.35;-54.3;2
5.21;1.75;-14.14;-120.66;125.9;-62.96;2
3.23;1.27;-13.12;-145.22;149.95;-78.58;2
1.39;-0.16;-11.19;-165.7;145.39;-87.23;2
0.9;-1.95;-9.56;-173.89;126.55;-95.38;2
-0.16;-4.39;-7.19;-161.73;105.66;-98.94;2
-0.49;-6.24;-6.48;-132.29;95.57;-101.85;2
-1.2;-7.63;-6.25;-97.95;88.16;-103.96;2
-2.87;-9.45;-7.34;-67.37;97.47;-94.98;2
-5.09;-10.62;-8.34;-43.8;114.99;-71.7;2
-6.26;-9.99;-7.78;-35.08;119.93;-37.35;2
-2.14;-6.92;-6.92;-48.17;114.64;-12.04;2
3.44;-5.9;-8.62;-59.75;41.67;-9.21;2
6.7;-6.79;-10.92;-56.44;22.01;-14.14;2
8.33;-8.67;-12.43;-50.75;39.04;-28.92;2
8.27;-11.71;-16.93;-41.37;82.74;-70.67;2
5.67;-15.14;-18.64;-32.58;76.91;-113.16;2
1.3;-19.55;-17.72;-65.58;20.64;-142.17;2
-6.97;-19.55;-12.86;-114.35;-54.57;-141.49;2
-18.75;-19.55;-2.67;-97.46;-6.13;-81.59;2
-14.95;-19.55;-0.12;16.3;6.28;-14.04;2
-2.13;-15.1;-8.34;42.05;-63.96;-6.82;2
2.26;-10.69;-13.49;22.53;-83.81;-14.79;2
4.69;-9.31;-17.39;-0.64;-66.39;-25.31;2
7;-9.96;-19.44;-29.55;-18.73;-51.78;2
8.4;-11.4;-21.44;-64.9;51.92;-84.21;2
8.89;-14.77;-21.38;-102.54;93.73;-129.36;2
4.48;-18.71;-19.92;-145.89;56.7;-170.64;2
-2.44;-19.55;-16.76;-189.47;20.96;-162.82;2
-10.95;-19.55;-7.71;-183.83;99.06;-113.17;2
-11.01;-19.55;-2.72;-95.17;136.88;-102.06;2
-10.23;-16.83;-5.27;-47.89;78.11;-91.37;2
-10.32;-14.25;-7.43;-45.15;56.03;-73.3;2
-12.21;-11.92;-3.88;-37.32;41.7;-53.19;2
-13.78;-10.39;-1.52;-6.32;26.93;-37.14;2
-14.52;-8.35;-2.55;32.3;34.6;-15.79;2
-13.07;-5.51;-4.19;45.55;43.8;6.12;2
-9.66;-4.25;-5.48;46.7;41.03;9.19;2
-8.84;-3.4;-6.35;54.43;24.15;29.02;2
-7.94;-2.17;-6.42;71.63;-3.94;47.75;2
-5.93;-2.24;-7.9;83.35;-14.19;66.57;2
-5.24;-1.89;-8.53;87;-16.12;75.42;2
-4.77;-2.6;-8.78;88.76;-14.93;79.55;2
-5.13;-2.71;-8.38;84.23;-32.55;90.01;2
-4.21;-3.41;-7.95;78.94;-49.07;101.15;2
-3.43;-4.09;-7.2;82.51;-62.13;113.86;2
-1.86;-5.7;-7.08;89.85;-63.07;124.6;2
-0.74;-8.25;-8.59;97.56;-79;134.7;2
-0.26;-10.73;-10.6;104.02;-115.33;142.16;2
-1.71;-14.01;-12.1;109.29;-155.55;155.5;2
-1.75;-19.55;-12.73;101.49;-187.97;161.96;2
0.81;-19.55;-12.85;89.72;-161.56;145.1;2
3.22;-19.55;-10.99;115.36;-101.05;138.6;2
4.01;-19.55;-12.45;134.19;-34.81;126.26;2
1.72;-16.88;-11.67;129.24;-20.84;113.73;2
0.09;-16.6;-10.36;124.98;-24.64;115.6;2
-0.31;-16.88;-8.72;122.33;-20.62;116.79;2
-1.5;-17.69;-8.03;122.4;-19.28;114.77;2
-1.06;-18.7;-8.55;115.5;-7.92;110.86;2
-0.74;-18.79;-8.87;100.75;-4.18;102.5;2
-1.22;-17.24;-9.1;88.83;-9.58;94.5;2
-0.58;-15.1;-9.34;78.82;-21.33;84.89;2
-0.7;-12.71;-10.11;63.24;-37.01;76.6;2
0.19;-10.4;-10.8;39.69;-40.66;62.05;2
-0.27;-8.89;-11.05;13.56;-53.59;37.58;2
0.12;-8.57;-11.54;-8.01;-60.95;12.2;2
0.5;-7.94;-11.69;-17.85;-64.14;-10.05;2
0.93;-7.08;-11.78;-19.47;-64.63;-26.5;2
1.31;-5.59;-11.86;-22.55;-68.88;-33.14;2
2.97;-4.07;-11.38;-30.76;-57.18;-34.27;2
4.57;-1.83;-11.7;-36.24;-32.62;-44.93;2
6.15;0.24;-12.46;-48.48;13.15;-51.47;2
7.28;1.43;-13.29;-68.87;60.15;-62.26;2
5.32;1.9;-13.15;-88.25;99.14;-62.81;2
5.1;2.09;-11.76;-99.95;111.6;-73.73;2
1.14;1.05;-10.79;-113.73;100.61;-70.34;2
-0.05;0.03;-9.22;-123.37;66.16;-74.36;2
-0.09;-1.21;-7.74;-124.63;34.06;-81.56;2
-0.64;-2.81;-6.82;-114.54;18.66;-86.12;2
-0.89;-3.72;-7.1;-101.57;10.54;-91.4;2
-1.31;-4.85;-7.73;-91.28;9.9;-95.58;2
-1.94;-6.26;-8.26;-83.3;19.26;-90.66;2
-2.46;-7.5;-9.12;-76.99;36.06;-82.23;2
-2.31;-8.5;-8.75;-72.37;57.17;-67.79;2
-0.7;-8.32;-5.73;-77.23;90.03;-45.05;2
2.51;-8.14;0.23;-77.97;138.29;-32.02;2
3.9;-8.63;-5.05;-34.58;83.77;-39.98;2
3.35;-8.77;-11.03;-13.07;67.31;-51.72;2
4.41;-11.65;-14.77;-16.3;81.35;-52.67;2
4.91;-14.04;-17.4;-9.53;79.2;-52.54;2
4.78;-14.34;-18.18;-4.88;34.76;-73.26;2
2.01;-11.93;-17.92;3.08;-23.33;-94.02;2
-1.49;-13.22;-16.46;-22.88;-69.03;-114.82;2
-6.76;-19.47;-16.53;-78.3;-84.55;-118.11;2
-9.17;-19.52;-16.28;-116.64;-46.04;-80.92;2
-7.25;-15.62;-12.48;-126.71;11.74;-20.51;2
0.68;-17.7;-8.37;-117.22;17.51;3.65;2
7.38;-19.55;-6.38;-72.79;16.19;-27.14;2
8.41;-19.55;-9.62;-30.53;9.53;-72.4;2
5.61;-19.55;-14.08;-29.95;25.03;-98.01;2
2.5;-19.08;-16.21;-52.57;48.47;-102.08;2
1.03;-17.88;-15.6;-79.99;76;-98.22;2
-1.26;-17.52;-13.05;-96.57;78.49;-91.16;2
-3.68;-19.14;-10.94;-92.15;63.91;-87.43;2
-5.73;-19.45;-9.95;-72.61;68.83;-83.01;2
-7.59;-16.66;-9.37;-52.05;81.49;-71.29;2
-7.91;-12.78;-8.57;-43.35;85.35;-56.21;2
-7.48;-10.51;-7.58;-34.93;73.76;-47.08;2
-8.71;-8.36;-6.31;-21.67;55.16;-38.98;2
-10.55;-6.16;-4.83;-6.56;29.29;-20.97;2
-10.3;-5.31;-4.99;11.62;9.99;-12.58;2
-10.1;-4.26;-6.04;25.64;-8.78;-3.82;2
-9.51;-3.74;-6.92;34.66;-28.05;5.49;2
-8.71;-3.51;-8.09;37.57;-42.91;23.31;2
-6.77;-3.22;-7.89;39.21;-39.59;40.47;2
-5.84;-2.91;-6.82;43.8;-30.19;55.07;2
-3.82;-4.14;-6.77;55.46;-24.83;70.85;2
-2.42;-4.28;-6.75;72.41;-27.3;74.6;2
-1.4;-4.66;-7.55;83.38;-38.42;74.2;2
-1.23;-4.5;-8.26;82.47;-44.57;77.37;2
-2.19;-4.25;-8.1;77.65;-53.55;85.91;2
-2.38;-5.43;-7.89;78.66;-60.17;99.61;2
-1.47;-7.66;-8.32;87.85;-66.92;111.31;2
-0.89;-9.78;-8.84;98.6;-78.17;119.37;2
-1.43;-13.27;-10.09;110.15;-96.29;127.06;2
-2.09;-17.64;-11.31;114.2;-118.07;139.17;2
-1.36;-19.55;-12.51;104.11;-135.03;137.27;2
-0.41;-19.55;-11.13;111.27;-130.4;134.99;2
2.11;-19.55;-12;132.78;-97.39;133.34;2
3.2;-19.55;-12.29;140.57;-60.57;125.87;2
2.74;-19.55;-11.3;136.62;-43.62;124.04;2
3.42;-19.55;-11.1;126.79;-13.7;127.29;2
2.21;-18.21;-10.52;111.66;8.89;119.18;2
-0.17;-17.02;-10.51;100.76;23.45;113.13;2
-1.61;-16.41;-10.45;88.19;24.75;104.99;2
-2.39;-16.02;-10;74.39;13.16;94.42;2
-1.77;-15.2;-9.5;63.48;-0.27;84.81;2
-1.41;-13.52;-9.47;53.58;-16.49;71.97;2
-1.05;-11.43;-10.07;40.83;-32.49;60.79;2
-0.33;-10.09;-11.2;24.32;-43.23;46.38;2
0.24;-9.36;-12.14;6.57;-57.51;28.76;2
1.14;-8.41;-12.61;-8.54;-71.99;11.27;2
2.21;-7.32;-12.42;-18.79;-81.25;-6.63;2
3.09;-5.93;-12.1;-24.33;-82.4;-24.17;2
3.83;-4.37;-12.26;-31.95;-68.94;-37.98;2
4.41;-2.6;-12.64;-45.76;-37.5;-45.91;2
4.96;-1.35;-12.91;-59.93;8.16;-51.95;2
4.6;-0.51;-12.61;-72.1;60.19;-53.53;2
4.37;-0.05;-11.75;-75.23;102.34;-61.72;2
2.82;-0.1;-10.77;-76.15;129.74;-66.95;2
1.09;-0.71;-9.72;-80.45;131.67;-67.45;2
-0.77;-1.53;-8.12;-88.84;103.94;-65.38;2
-0.54;-1.85;-6.73;-95.82;59.39;-64.11;2
-1.83;-3.17;-4.72;-86.99;17.99;-60.14;2
-2.49;-4.18;-4.03;-64.81;-7.3;-54.78;2
-3.1;-4.78;-5.09;-44.39;-21.29;-48.02;2
-3.73;-5.68;-6.37;-31.64;-27.03;-40.79;2
-3.98;-6.74;-7.31;-22.57;-4.71;-28.24;2
-4.15;-7.15;-8.61;-11.69;70.22;-15.39;2
-3.01;-6.11;-8.6;-6.33;159.68;-3.02;2
0.31;-3.92;-7.26;-13.31;249.54;13.55;2
5.29;-2.45;-5.7;-26.92;226.61;25.69;2
8.19;-3.26;-10.58;-26.12;94.91;5.51;2
9.4;-4.67;-14.28;-18.5;96.16;-21.19;2
8.15;-9.96;-16.83;-1.45;76.62;-56.53;2
5.27;-16.32;-18.82;8.08;-0.94;-115.76;2
2.03;-19.55;-20.11;-9.02;-61.71;-146.4;2
-4.27;-19.55;-18.36;-31.52;-193.42;-135.23;2
-11.72;-19.55;-13.21;-84.96;-79.81;-83.21;2
-11.88;-13.11;-11.56;-89.13;16.54;-25.66;2
-3.92;-15.52;-13.65;-93.84;11.9;-0.43;2
2.78;-17.76;-11.16;-103.27;-6.91;-17.66;2
4.79;-18.38;-5.23;-75.19;-37.37;-44.15;2
4.23;-18.41;-7.59;-20.04;-57.04;-73.62;2
3.66;-17.27;-13.99;-6.5;-49.23;-86.64;2
3.85;-17.25;-17.39;-31.86;-8.46;-89.38;2
4.44;-16.87;-19.06;-73.09;37.94;-91.72;2
4.74;-17.29;-17.25;-108.15;79.47;-96.92;2
2.96;-18.38;-12.81;-121.78;95.38;-107.09;2
-1.44;-18.97;-9.03;-104.23;102.14;-111.75;2
-5.97;-19.42;-8.24;-69.44;101.61;-106.33;2
-7.62;-15.79;-8.95;-50.43;100.86;-94.4;2
-8.13;-12.8;-9.69;-48.46;86.99;-80.21;2
-7.69;-11.05;-8.72;-53.31;75.34;-64.81;2
-7.42;-9.87;-7.3;-47.27;51.18;-53.68;2
-7.45;-8.77;-6.28;-28.99;24.12;-50.1;2
-7.99;-7.13;-6.35;-6.9;5.29;-49.86;2
-8.86;-5.55;-6.76;9.08;-0.19;-42.75;2
-9.41;-4.25;-7.63;19.58;-3.67;-28.44;2
-9.49;-3.01;-8.28;26.66;-12.52;-14.66;2
-7.61;-2.34;-8.41;31.92;-25.08;-12;2
-8.57;-1.5;-8.48;35;-39.65;3.59;2
-7.67;-0.54;-8.3;36.95;-46.6;22.07;2
-6.06;-0.47;-8.2;34.56;-48.43;44.34;2
-4.11;-1.5;-7.74;29.3;-46.42;67.54;2
-2.47;-2.4;-6.52;30.5;-49.78;79.75;2
-1.63;-3.98;-5.51;46.2;-52.55;80.97;2
-1.82;-4.63;-5.47;70.16;-58.36;83.11;2
-2.01;-5.98;-7.3;88.53;-65.09;86.73;2
-2.64;-7.62;-8.9;92.85;-76.65;90.67;2
-3.82;-10.89;-10;88.94;-96.44;109.66;2
-5.12;-16.25;-10.46;82.66;-133.58;137.01;2
-3.76;-19.55;-11.55;78.08;-166.88;151.89;2
2.44;-19.55;-11.57;87.66;-161.94;136.89;2
2.08;-19.55;-10.42;136.08;-152.94;138.46;2
3.51;-19.55;-13.93;158.41;-117.24;137.79;2
4.77;-19.55;-14.29;148.43;-69.88;116.76;2
1.93;-19.55;-11.48;137.39;-44.14;122;2
1.47;-19.55;-9.38;137.47;-14.39;133.86;2
2.09;-19.55;-9.13;137.37;18.07;130.03;2
1.28;-19.55;-10.08;131.74;40.55;115.12;2
-0.07;-18.14;-10.76;117.09;51.67;100.11;2
-1.48;-16.3;-10.24;98.94;49.5;93.16;2
-1.98;-15.17;-10.05;83.52;39.25;90.85;2
-1.3;-13.64;-10.38;70.27;24.52;87.25;2
-0.43;-11.07;-10.74;57.11;-1.51;81.86;2
-0.04;-9.48;-11.32;43.63;-37.8;68.19;2
1.35;-8.07;-12.15;29.24;-67.12;48.99;2
1.93;-6.96;-12.85;18.95;-94.46;23.76;2
2.73;-5.28;-13.11;14.24;-112.7;-4.29;2
2.8;-3.54;-13.61;6.03;-118.74;-26.23;2
3.15;-1.95;-14.31;-8.02;-103.78;-36.88;2
4.49;0.47;-15.05;-25.63;-59.94;-35.75;2
6.4;2.5;-14.94;-44.73;7.17;-33.96;2
7.52;3.93;-14.67;-59.54;68.67;-39.55;2
5.63;4.17;-14.13;-75.21;106.25;-52.39;2
3.51;3.43;-13.46;-90.4;115.84;-64.21;2
1.95;2.37;-12.32;-107.28;91.43;-69.52;2
2.31;1.09;-11.2;-121.38;45.06;-76.51;2
1.94;-0.39;-8.91;-120.95;2.4;-77.17;2
2.33;-1.56;-6.99;-104.48;-24.11;-81.59;2
1.34;-2.92;-5.97;-85.68;-19.75;-83.53;2
0.46;-4.74;-6.2;-68.92;3.3;-85;2
-1.59;-6.41;-7.74;-62.08;55.35;-82.43;2
-2.88;-7.54;-9.3;-54.26;124.93;-72.92;2
-2.13;-7.47;-8.8;-53.44;194.54;-53.28;2
-1.11;-7.61;-6.05;-66.82;226.08;-37.99;2
1.35;-7.75;-3.99;-67.31;186.41;-29.81;2
3.4;-9.16;-10.2;-52.4;79.2;-42.04;2
5.64;-11.73;-13.51;-57.01;93.15;-53.69;2
7.99;-18.35;-17.65;-60.54;137.29;-58.75;2
6.91;-19.55;-19.82;-40.97;123.25;-84.84;2
1.61;-19.55;-17.6;-27.92;60.35;-103.56;2
-4.87;-15.35;-15.08;-9.65;-4.63;-94.9;2
-9.66;-18.56;-13.2;-10.82;-83.31;-84.36;2
-11.65;-19.55;-12.52;-29.92;-62.01;-63.78;2
-6.17;-15.27;-11.63;-46.7;-11.93;-33.89;2
0.86;-12.76;-13.78;-52.12;-24.08;-20.34;2
4.98;-14.73;-15.35;-55.18;-36.62;-39.39;2
6.35;-18.27;-15.81;-59.5;-41.04;-76.82;2
5.21;-19.55;-15.41;-66.61;-25.81;-106.12;2
1.93;-19.55;-14.03;-76.01;14.51;-106.79;2
-1.37;-19.2;-12.71;-88.41;47.15;-94.32;2
-1.26;-17.29;-9.99;-98.95;82.02;-82.88;2
-2.28;-16.16;-6.28;-88.11;75.25;-83.81;2
-4.18;-14.15;-5.09;-56.53;38.44;-87.09;2
-5.79;-12.05;-6.42;-26.19;17.29;-80.85;2
-7.46;-9.99;-8.23;-16.42;10.98;-64.99;2
-8.53;-8.04;-8.91;-22.48;19.4;-45.23;2
-7.97;-6.3;-7.37;-30.57;34.93;-32.53;2
-7.61;-5.61;-4.37;-21.04;51.4;-27.8;2
-8.46;-4.55;-3.62;9.96;65.65;-19.76;2
-8.2;-2.96;-5.41;42.59;46.73;-9.51;2
-8.45;-1.22;-7.71;61.84;3.18;-1.78;2
-8.05;0.7;-8.34;66.93;-35.2;1.32;2
-7.88;1.55;-7.74;66.32;-55.1;6.68;2
-7.45;2.06;-6.91;61.81;-60.01;38.42;2
-5.28;0.02;-6.9;62.61;-42.55;73.19;2
-1.48;-3.03;-6.52;74.29;-25.7;85.75;2
0.16;-4.88;-6.5;100.14;-7.01;84.54;2
-0.96;-5.27;-7.21;120.03;-4.66;85.65;2
-2.66;-7.33;-9.32;121.18;-18.94;107.83;2
-4.61;-12.15;-11.58;111.37;-38.11;141.28;2
-9.11;-19.55;-12.31;83.16;-108.45;191.54;2
1.62;-19.55;-17.16;27.97;-146.51;163.74;2
1.39;-19.55;-6.63;89.19;-152.08;143.73;2
0.46;-19.2;-11.31;152.07;-158.07;173.56;2
6.31;-19.55;-15.86;151.58;-112.42;168.35;2
9.88;-19.55;-15.8;135.53;-24.33;114.11;2
5.29;-17.38;-11.67;124.91;-22.26;97.7;2
1.13;-16.68;-10.32;116.26;-2.33;117.43;2
-0.03;-16.68;-9.42;105.18;36.35;115.59;2
-1.24;-16.89;-9.84;94.4;52.48;102.45;2
-2.59;-16.21;-10.4;76.49;38.77;86.68;2
-3.6;-14.31;-9.61;58.47;10.06;81.51;2
-1.76;-13.38;-8.98;50.68;-19.8;78.05;2
0.56;-12.1;-9.11;46.14;-46.56;70.02;2
1.12;-10.54;-9.94;38.97;-70.73;58.84;2
1.52;-9.36;-11.57;24.35;-81.05;47.83;2
2.11;-8.42;-12.45;7.21;-80.86;34.2;2
2.3;-6.96;-12.13;-7.45;-74.88;19.34;2
1.92;-5.68;-11.38;-16.12;-74.04;6.03;2
2.04;-4.61;-10.53;-19.8;-78.3;-7.17;2
2.11;-3.4;-10.42;-24.24;-76.81;-17.67;2
2.48;-2.34;-10.65;-27.43;-60.65;-14.59;2
4.91;-0.56;-11.4;-36.36;-34.05;-28.32;2
4.99;0.56;-11.57;-48.92;1.08;-37.08;2
4.72;1.03;-11.72;-62.82;37.22;-43.26;2
3.49;1.19;-11.61;-76.89;67.28;-54.99;2
1.21;0.45;-11.07;-88.45;83.32;-61.38;2
0.44;-0.79;-10.13;-100.66;74.77;-66.46;2
-0.63;-2.32;-8.89;-110.89;51.73;-64.69;2
-1.28;-4.38;-7.22;-110.86;26.93;-62.75;2
-2.55;-5.88;-6.33;-97.31;14.66;-60.92;2
-3.56;-7.67;-6.28;-75.58;22.81;-57.04;2
-4.18;-8.44;-7.12;-52.96;39.83;-53.51;2
-4.12;-8.82;-8.07;-37.05;63.56;-43.22;2
-3.42;-8.98;-7.17;-23.5;99.49;-27.84;2
-3.59;-9.25;-4.84;1.86;167.83;-7.51;2
-3.97;-6.79;-4.27;21.13;235.87;23.68;2
4.87;-3.66;-11.06;17.35;133.38;36.01;2
7.98;-3.65;-14.92;-12.21;58.73;15.51;2
11.49;-5.32;-15.37;-45.92;99.87;3.48;2
12.37;-9.08;-17.44;-47.21;86.14;-36.85;2
11.4;-14.62;-20.49;-31.82;50.88;-113.05;2
6.49;-16.57;-18.41;-57.58;-6.92;-151.82;2
-0.26;-18.61;-15.55;-103.79;-58.15;-167.23;2
-10.14;-19.55;-9.83;-129.2;-57.63;-126.45;2
-15.79;-19.55;-4.81;-85.04;21.45;-48.99;2
-6.61;-17.74;-3.4;-16.76;13.15;-23.35;2
0.56;-14.7;-7.85;7.25;-67.26;-29.11;2
3.8;-13.62;-13.46;7.29;-87.19;-44.48;2
4.85;-13.35;-16.46;-11.87;-70.9;-63.12;2
5.98;-13.71;-18.21;-33.34;-32.08;-81.88;2
7.24;-14.24;-19.4;-58.58;29.09;-95.14;2
6.12;-15.81;-18.15;-89.69;52.37;-109.86;2
3.89;-18.02;-16.85;-125.57;65.75;-124.79;2
-0.72;-19.32;-13.26;-155.5;80.79;-127.19;2
-5.48;-19.55;-7.51;-144.37;107.26;-110.92;2
-6.53;-18.17;-3.68;-87.56;113.78;-93.67;2
-6.41;-14.47;-4.94;-44.69;78.54;-86.22;2
-8.16;-11.87;-7.41;-29.55;53.7;-73.72;2
-8.94;-9.84;-8.05;-28.95;38.21;-56.23;2
-9.62;-8.09;-7.45;-27.31;19.91;-40.63;2
-8.78;-6.42;-6.24;-16.41;20.06;-29.05;2
-8.88;-5.52;-5.41;4.18;29.99;-21.11;2
-9.8;-4.39;-6.37;21.19;46.88;-10.71;2
-10.03;-3.13;-7.73;28.63;50.96;-1.79;2
-10.23;-2.2;-8.86;30.29;29.32;10.63;2
-10.47;-1.49;-8.86;34.05;-21.14;28.2;2
-9.68;-0.7;-8.19;41.85;-63.82;54.12;2
-7.57;-0.48;-7.75;44.7;-85.67;83.8;2
-3.93;-1.85;-7.48;40.07;-90;105.08;2
-1.03;-3.78;-6.55;48.05;-75.84;105.14;2
-0.75;-5.27;-4.72;75.95;-64.3;99.34;2
-1.3;-6.48;-5.75;99.68;-52.89;98.04;2
-1.58;-8.16;-7.64;108.57;-54.88;106.6;2
-2.33;-11.53;-9.58;107.79;-72.6;121.6;2
-3.58;-16.75;-11.37;99.87;-114.04;141.89;2
-0.85;-19.55;-14.68;81.6;-128.31;147.96;2
1.58;-19.55;-12.77;76.35;-98.18;146.12;2
2.41;-19.55;-10.83;104.14;-89.59;152.99;2
2.88;-19.55;-12.13;121.89;-72.42;144.03;2
2.5;-19.55;-12.38;125.31;-61.48;122.42;2
0.47;-19.55;-12.28;123.07;-60.26;109.69;2
-0.06;-19.55;-12.26;117;-41.55;119.34;2
-0.04;-19;-11.38;105.52;-24.43;124.91;2
0.93;-18.49;-11.37;99.39;-5.07;124.31;2
1.13;-17.39;-11.44;90.69;2.01;113.82;2
1.07;-15.82;-11.39;78.15;1.64;103.37;2
0.7;-14.05;-10.74;64.76;0.22;94.17;2
0.59;-12.29;-10.4;51.4;-12.4;84.25;2
0.65;-10.24;-10.89;34.52;-27.5;74.6;2
1.13;-8.58;-11.73;17.1;-43.96;63.67;2
1.99;-7.65;-12.51;1.02;-57.65;46.01;2
2.47;-6.71;-12.94;-11.76;-67.1;23.39;2
3.07;-5.46;-13.12;-22.31;-66.42;1.39;2
2.95;-4.41;-13.07;-30.07;-62.68;-22.05;2
3.49;-3.06;-13.14;-36.89;-41.45;-38.88;2
4.62;-1.73;-12.61;-44.38;-1.2;-49.51;2
5.51;-1.07;-11.16;-47.73;50.95;-60.43;2
4.61;-0.8;-10.83;-53.31;97.65;-70.14;2
1.61;-1.84;-10.66;-64.42;119.22;-66.5;2
0.38;-2.3;-9.53;-76.88;104.25;-72.74;2
-1.65;-3.11;-7.33;-76.95;68.71;-65.62;2
-2.75;-4.41;-6.16;-56.11;36.45;-56.94;2
-2.74;-4.9;-7.46;-32.84;21.22;-50.6;2
-2.92;-4.71;-9.43;-20.73;16.55;-44.24;2
-2.23;-4.41;-11.43;-19.21;30;-35.85;2
-1.63;-4.31;-12.53;-15.31;66.4;-27.94;2
-2.01;-4.16;-11.64;-12.12;106.94;-12.93;2
-1.33;-4.07;-9.05;-21.73;151.97;4.44;2
1.15;-2.77;-5.29;-36.16;183.39;18.24;2
6.1;-3.39;-7.82;-37.82;82.16;9.29;2
7.41;-4.6;-12.19;-38.4;88.64;-17.71;2
6.38;-8.17;-15.28;-45.63;111.19;-30.46;2
5.4;-15.41;-19.27;-27.99;49.41;-71.28;2
2.3;-19.55;-21.5;-31.48;-8.78;-120.75;2
-5.18;-19.55;-15.79;-69.56;-83.78;-120.85;2
-15.47;-19.55;-6.54;-88.69;1.04;-53.37;2
-8.74;-16.09;-1.46;-38.33;31.68;5.98;2
0.27;-14.58;-6.96;-1.44;-0.2;-2.83;2
4.18;-12.49;-12.11;8.62;-41.29;-28.26;2
5.35;-11.55;-15.96;11.19;-58.77;-51.86;2
6.47;-11.29;-18.18;-0.54;-46.38;-79.92;2
6.22;-13.12;-19.78;-25.53;-19.19;-108.65;2
4.5;-14.56;-20.2;-62.95;-19.72;-133.25;2
1.16;-15.78;-19.08;-105.6;-8.1;-137.97;2
-1.42;-17.13;-16.97;-142.76;4.9;-125.9;2
-2.37;-18.21;-12.57;-158.35;45.89;-110.97;2
-1.26;-17.36;-6.41;-127.66;64.15;-103.85;2
-0.98;-16.7;-5.98;-83.18;52.71;-105.85;2
-2.87;-15;-8.27;-61.44;50.23;-105.27;2
-4.87;-13.1;-9.51;-59.51;58.22;-92.42;2
-5.86;-11.46;-9.24;-62.76;63.28;-77.57;2
-6.51;-11;-7.55;-57.16;57.27;-65.07;2
-6.93;-10.58;-6.02;-35.78;49.36;-62.79;2
-8.8;-10.3;-5.29;-5.95;45.54;-63.94;2
-10.77;-8.54;-5.35;16.67;51.96;-49.5;2
-11.75;-6.71;-6.16;27.68;51.3;-26.11;2
-12.5;-4.95;-6.8;35.43;33.75;-4.14;2
-11.35;-3.78;-7.4;46.63;9.2;6.48;2
-10.62;-2.12;-7.69;55.13;-17.44;33.24;2
-8.28;-0.92;-8.04;58.66;-34.81;58.8;2
-5.67;-1.35;-8.39;54.7;-50.97;80.14;2
-3.47;-2.9;-8.83;50.27;-56.32;94.15;2
-1.99;-4.53;-8.17;56.09;-59.11;98.57;2
-0.85;-6.57;-7.26;71.53;-42.12;99.15;2
-0.86;-8.1;-6.93;91.05;-30.13;105.05;2
-1.47;-9.33;-7.51;107.58;-40.58;105.89;2
-2.65;-11.79;-9.11;116.91;-72.55;112.17;2
-4.66;-16.16;-10.65;116.47;-109.25;127.69;2
-3.33;-19.55;-13.07;103.12;-132.13;141.54;2
0.17;-19.55;-13.14;100.92;-108.84;151.28;2
2.55;-19.55;-11.86;116.79;-92.05;155.31;2
3.79;-19.55;-12.78;123.95;-62.86;145.37;2
3.38;-19.55;-12.21;124.24;-51.09;126.15;2
1.66;-18.89;-10.99;126.65;-44.75;123.11;2
0.94;-18.53;-11.09;124.89;-23.04;127.24;2
0.04;-17.12;-10.98;112.94;-20.49;123.61;2
-1.24;-16.17;-10.91;101.3;-12.26;120.31;2
-0.79;-15.09;-11.16;92.17;-1.1;119.4;2
-0.56;-13.79;-10.9;80.12;-3.51;106.96;2
-0.26;-12.49;-10.56;66.81;-10.68;96.35;2
0.58;-10.91;-10.41;54.89;-16.77;85.28;2
1.07;-9.27;-10.7;40.62;-31.71;72.32;2
1.15;-8.14;-11.43;23.81;-54.17;57.78;2
0.96;-7.49;-12.39;4.83;-77.38;40.29;2
1.01;-6.68;-12.7;-11.13;-93.04;22.24;2
0.9;-5.99;-12.34;-20.8;-99.71;3.12;2
0.54;-4.92;-12.15;-28.94;-102.52;-11.43;2
0.48;-3.84;-11.95;-39.48;-96.95;-22.05;2
2.4;-2.28;-11.74;-52.97;-75.93;-38.8;2
3.54;-1.38;-11.65;-68.5;-42.41;-52.22;2
4.62;-0.84;-11.31;-84.92;-4.07;-67.45;2
4.08;-1.9;-10.55;-98.72;33.57;-82.79;2
1.78;-3.16;-8.97;-101.73;62.19;-85.13;2
0.08;-3.87;-7.32;-96.47;66.51;-84.69;2
-1.38;-5.42;-5.83;-85.23;50.56;-78.34;2
-2.31;-7.08;-5.01;-65.91;32.98;-71.08;2
-3.97;-7.96;-5.52;-45.87;35.93;-65.93;2
-4.83;-7.86;-7.67;-29.86;51.74;-51.86;2
-4.38;-6.79;-9.49;-19.87;79.12;-34.53;2
-3.66;-5.75;-10.55;-8.21;121.19;-13.13;2
-2.62;-5.57;-8.73;2.5;166.11;11.7;2
-0.31;-2.98;-6.7;1.9;202.17;36.68;2
7.21;-0.17;-8.01;-24.03;115.24;51.14;2
12.98;0.24;-10.71;-53.99;49.41;31.97;2
15.04;-2.63;-12.87;-47.34;120.8;-0.69;2
11.72;-6.37;-17.34;-13.83;176.38;-40.05;2
8.28;-10.71;-19.41;20.92;121.98;-111.05;2
5.14;-17.24;-21;4.07;20.94;-157.68;2
-1.28;-19.55;-20.2;-74.74;-68.37;-190.14;2
-16.65;-19.55;-12.4;-171.52;-127.01;-145.04;2
-19.7;-19.55;1.92;-95.95;124.54;-22.26;2
-7.3;-13.86;2.48;22.99;25.78;49.99;2
3.36;-12.73;-8.49;51.43;-61.99;37.08;2
7.13;-9.56;-14.59;34.3;-70.2;4.79;2
8.64;-8.1;-17.96;14.53;-40.76;-20.4;2
10.3;-9.3;-20.62;-10.83;26.71;-59.07;2
10;-10.17;-21.22;-44.04;93.96;-98.88;2
6.2;-13.47;-19.1;-74.44;91.16;-133.1;2
1.17;-16.01;-18.23;-100.94;56.52;-154.16;2
-4;-19.55;-16.56;-141.77;21.67;-156.09;2
-10.88;-19.55;-9.55;-166.22;60.96;-122.43;2
-8.6;-19.55;0.27;-92.32;77.06;-95.96;2
-4.16;-16.45;-2.02;-20.34;15.51;-95.72;2
-3.84;-14.07;-7.85;-13.46;-6.51;-88.21;2
-4.29;-12.14;-9.84;-33.33;7.11;-73.64;2
-3.91;-10.72;-9.64;-52.81;32.99;-55.2;2
-4.21;-10.78;-8.43;-57.44;52.38;-47.86;2
-5.18;-11.78;-6.89;-44.08;53.75;-56.22;2
-7.38;-10.78;-6.17;-15.76;57.7;-68.86;2
-10.14;-8.79;-6.33;11.69;55.7;-56.75;2
-10.49;-6.5;-7.63;19.61;54.25;-42.39;2
-10.86;-4.77;-7.75;22.47;40.38;-29.88;2
-11.81;-2.63;-7.36;27.42;10.96;-14.64;2
-11.62;-0.63;-7.03;34.69;-21.18;5.84;2
-10.56;0.25;-7.27;43.63;-52.21;35.35;2
-8.13;0.09;-8.03;48.68;-74.2;64.37;2
-5.33;-0.58;-8.49;44.47;-83.03;89.44;2
-1.91;-3.31;-8.45;35.6;-81.6;100.32;2
-0.52;-5.26;-6.77;40.42;-59.37;103.32;2
0.5;-7.09;-4.95;65.32;-42.01;97.34;2
-1.05;-7.76;-5.27;95.82;-46.76;93.61;2
-2.44;-9.5;-7.93;111.43;-64.2;98.18;2
-4.79;-12.92;-10.58;107.27;-93.13;111.32;2
-5.95;-19.09;-12.3;87.48;-123.27;135.93;2
-1.27;-19.55;-14.25;66.2;-126.01;146.08;2
1.04;-19.55;-10.6;81.73;-113.87;139.57;2
0.78;-19.49;-10.85;114.13;-117.94;146.28;2
2.44;-19.55;-12.51;126.39;-101.18;150.33;2
4.25;-19.55;-12.52;125.34;-66.47;122.88;2
2.67;-19.55;-10.97;131.01;-55.62;111.98;2
1.75;-18.06;-10.71;131.4;-38.27;117.08;2
0.39;-17.22;-10.49;121.7;-20.81;117.91;2
-0.31;-16.83;-10.95;111.88;-5.4;116.91;2
-0.44;-16.23;-11.29;96.56;3.87;113.12;2
-0.97;-15.04;-10.61;80.5;-2;107.96;2
-0.42;-13.46;-9.85;68.01;-14.23;99.99;2
0.35;-11.61;-9.95;56.48;-30.46;88.62;2
0.75;-9.42;-10.87;41.56;-47.66;78.41;2
0.97;-8.26;-12.09;19.39;-66.38;61.59;2
1.13;-7.29;-13.07;-4.92;-82.19;41.55;2
1.32;-6.5;-13.41;-24.21;-93.03;19.71;2
1.67;-5.51;-13.45;-38.26;-93.89;-0.89;2
1.64;-4.78;-13.4;-51.27;-89.67;-19.21;2
1.98;-3.99;-13.39;-64.33;-76.17;-32.89;2
2.99;-2.91;-13.07;-77.47;-44.91;-43.37;2
4.13;-1.85;-12.78;-89.43;-3.52;-55.36;2
5.11;-0.97;-11.58;-98.68;39.25;-69.66;2
4.27;-2.03;-10.73;-104.62;72.27;-81.55;2
3.88;-2.99;-9.51;-106.31;79.63;-95.64;2
2.03;-3.73;-7.63;-105.45;60.14;-101.05;2
0.65;-4.85;-5.48;-94.53;22.88;-98.24;2
-1.4;-6.54;-3.46;-65.67;-11.82;-88.54;2
-2.83;-7.5;-4.12;-32;-21.03;-74.99;2
-4;-7.4;-5.79;-10.58;-15.2;-61.66;2
-4.72;-6.81;-7.3;-5.32;-1.65;-42.11;2
-5.34;-6.94;-6.96;-6.15;40.22;-15.54;2
-7.71;-8.03;-6.59;6.95;146.11;15.22;2
-7.1;-6.75;-7.52;14.66;254.27;49.06;2
3.44;-0.94;-12.33;-1.3;254.27;81.47;2
10.01;0.17;-12.06;-52.79;145.58;72.02;2
15.75;-1.4;-10.9;-93.01;78.17;51.61;2
18.98;-5.86;-11.1;-73.35;98.8;0.1;2
10.94;-10.73;-15.96;-14.16;138.96;-78.32;2
7.46;-15.39;-18.21;7.75;128.83;-132.62;2
3.6;-18.28;-19.07;-4.89;48.12;-179.01;2
-1.32;-18.41;-16.38;-31.35;-48.95;-194.46;2
-10.01;-19.55;-14.05;-63.51;-106.02;-151.3;2
-17.27;-19.55;-12.55;-66.87;-4.57;-84.53;2
-12.9;-16.77;-10.31;-41.01;20.15;-32.74;2
-4.1;-16.01;-11.93;-36.64;-24.66;-15.47;2
1.32;-15.55;-12.59;-40.69;-53.91;-28.89;2
4.21;-15.59;-13.85;-40.65;-62.46;-53.83;2
6.28;-15.17;-15.1;-46.24;-33.53;-73.88;2
6.91;-14.64;-16.31;-61.38;13.5;-91.07;2
6.59;-15.02;-16.85;-83.89;70.29;-99.7;2
4.38;-16.59;-14.96;-108.27;108.53;-106.88;2
0.53;-18.62;-11.82;-115.98;128.74;-115.66;2
-4.89;-19.55;-8.2;-95.16;132.64;-113.72;2
-6.91;-16.49;-6.31;-62.47;136.78;-98.88;2
-8.02;-13.62;-6.54;-41.89;104.4;-89.14;2
-7.78;-12.07;-7.58;-34.18;64.21;-76.34;2
-8.05;-11.07;-8.6;-28.81;34.51;-65.79;2
-8.41;-10.3;-8.97;-21.76;20.54;-55.53;2
-8.34;-9.01;-8.68;-12.31;19.89;-46.57;2
-8.16;-7.3;-7.82;-0.22;23.48;-38.19;2
-8.66;-5.79;-7.62;13.49;27.84;-29.35;2
-9.28;-4.02;-7.49;25.74;23.29;-20.64;2
-9.73;-2.64;-7.68;32.19;5.09;-11.89;2
-9.58;-1.95;-8;33.69;-20.53;-0.44;2
-9.02;-1.55;-7.92;35.98;-40.84;10.86;2
-8.39;-0.25;-7.71;36.02;-52.06;41.3;2
-6.06;-1.35;-8.43;34.7;-60.42;76.31;2
-3.03;-2.56;-8.26;35.64;-74.77;93.26;2
-1.23;-3.83;-7.17;46.98;-81.16;95.06;2
-0.91;-5.47;-6.18;68.3;-75.42;93.03;2
-1.14;-6.77;-6.95;88.45;-65.83;95.43;2
-1.31;-8.69;-8.51;97.59;-63.18;99.65;2
-2.86;-11.67;-9.9;96.95;-66.6;115.74;2
-3.87;-17.15;-10.72;87.05;-80.68;138.43;2
-1.32;-19.55;-12.14;66.73;-98.84;134.63;2
0.63;-19.55;-9.59;82.38;-105.79;133;2
-0.47;-19.18;-10.13;123.34;-126.7;148.25;2
0.36;-19.55;-12.22;133.02;-123.92;156.62;2
2.47;-19.55;-12.34;123.86;-87.88;143.23;2
1.66;-19.55;-9.47;124.26;-75.47;121.49;2
1.81;-19.55;-8.73;140.2;-53.48;131.33;2
1.05;-19.13;-9.67;142.2;-31.39;129.96;2
0.99;-17.89;-10.7;132.69;4.44;128.07;2
1.28;-17.21;-11.22;115.55;32.23;121.66;2
0.42;-15.88;-10.37;100.77;40.58;114.44;2
0.37;-14.67;-9.6;89.66;31.81;105.77;2
0.07;-13.28;-9.53;78.97;10.37;99.18;2
-0.04;-11.44;-10.49;66.11;-10.88;93.7;2
-0.26;-9.36;-11.52;45.47;-33.81;84.9;2
-0.22;-8.04;-12.08;22.76;-59.59;68.83;2
0.11;-6.78;-12.56;5.87;-81.38;48.31;2
0.21;-5.33;-12.89;-5.25;-106.88;21.66;2
0.83;-3.87;-13.21;-12.55;-121.03;-6.17;2
1.78;-2.56;-13.83;-23.92;-112.3;-28.08;2
4.06;-1.08;-13.89;-39.05;-78.04;-44.73;2
5.84;0.49;-14.46;-59.02;-20.04;-61.51;2
6.84;1.28;-14.76;-84.37;44.32;-78.07;2
6.08;0.28;-13.79;-107.01;93.22;-95.46;2
3.61;-1.22;-11.46;-118.06;113.58;-99;2
1.96;-3.1;-8.86;-115.12;101.57;-96.62;2
0.19;-4.18;-6.98;-102.11;67.4;-89.14;2
-0.79;-5.54;-5.44;-74.57;31.7;-84.12;2
-2.35;-6.17;-5.69;-46.08;13.46;-70.25;2
-2.78;-5.73;-7.1;-30.2;9.82;-54.59;2
-3.68;-5.34;-8.61;-27.18;26.29;-36.17;2
-3.89;-4.81;-10.59;-31.87;68.68;-14.7;2
-2.79;-3.45;-11.46;-42.21;119.24;1.26;2
1.32;-2.03;-9.11;-62.78;182.2;12.41;2
6.49;-0.74;-2.72;-86.21;188.45;13.41;2
10.29;-2.49;-4.74;-62.57;83.86;-17.97;2
8.87;-4.89;-12.43;-30.92;101.88;-53.63;2
6.47;-8.34;-15.88;-15.73;128.97;-73.4;2
4.31;-15.84;-19.07;-4.07;69.19;-117.79;2
1.28;-19.55;-23.02;-20.47;-41.6;-168.56;2
-8.54;-19.55;-18.94;-88.38;-192.83;-147.64;2
-19.7;-19.55;-9.83;-135.17;-62.85;-73.46;2
-15.68;-10.89;0.76;-79.26;56.17;22.39;2
-1.6;-12.12;-1.28;-24.18;5.58;52.16;2
6.68;-13.79;-10.86;6.12;-36.42;21.07;2
9.72;-11.7;-15.8;10.2;-39.52;-22.93;2
10.23;-11.09;-18.86;-2.42;-14.55;-58.11;2
10.62;-12.38;-20.93;-37.68;31.98;-100.33;2
8.1;-15.52;-20.91;-82.79;43.53;-135.25;2
3.58;-18.21;-18.55;-129.5;37.16;-154.5;2
-1.49;-19.55;-13.81;-159.28;63.94;-142.17;2
-5.85;-19.55;-7.4;-134.41;116.73;-111.04;2
-5.16;-18.71;-5.24;-72.68;96.57;-104.82;2
-5.75;-15.74;-7.84;-42.74;56.88;-107.4;2
-7.33;-12.69;-9.27;-39.82;38.3;-92.41;2
-8.63;-11.15;-10.02;-47.94;26.32;-73.39;2
-9.03;-10.17;-9.35;-56.94;23.79;-56.67;2
-9.15;-9.81;-7.24;-53.18;23;-44.96;2
-8.94;-9.2;-4.36;-27.32;25.89;-40.08;2
-9.37;-8.33;-2.72;17.94;32.69;-32.88;2
-10.05;-6.02;-4.81;41.95;42.41;-17.87;2
-8.84;-4.24;-6.3;47.69;35.13;-16.01;2
-10.86;-2.48;-7.22;49.31;8.3;4.19;2
-10.16;-0.62;-7.19;55.46;-19.33;28.83;2
-8.47;0.63;-7.39;60.82;-37.81;55.94;2
-6.08;0.28;-8.15;56.89;-43.23;82.68;2
-3.58;-1.19;-8.76;45.34;-39.83;103.85;2
-1.07;-3.66;-7.7;47.05;-41.59;112.73;2
0.37;-6.96;-5.98;75.48;-34.52;103.47;2
-1.72;-7.5;-5.8;105.42;-53.19;98.19;2
-3.15;-9.58;-8.11;114.01;-71.47;107.42;2
-5.93;-14.5;-9.47;108.63;-110.12;126.21;2
-5.39;-19.55;-12.04;86.58;-153.55;144.83;2
2.95;-19.55;-15;80.05;-110.04;134.87;2
1.46;-17.89;-11.59;112.56;-116.13;131.74;2
1.84;-18.67;-13.71;118.61;-108.41;154.76;2
3.47;-19.55;-13.34;104.58;-91.92;146.84;2
3.74;-19.55;-11.89;105.3;-63.17;117.8;2
2.37;-19.55;-9.47;116.43;-54.49;103.51;2
1.04;-18.73;-9.09;123.32;-44.76;107.29;2
0.07;-17.03;-9.52;119.25;-29.2;107.7;2
0.87;-16.06;-11.35;106.16;2.03;101.08;2
0.78;-14.86;-12.7;85.43;24.59;92.69;2
0.57;-13.71;-12.1;61.26;32.56;84.46;2
0.61;-12.87;-10.56;48.28;27.16;75.36;2
0.98;-11.53;-10.05;43.08;9;66.86;2
0.89;-9.66;-10.65;35.65;-20.17;61.54;2
1.28;-7.79;-11.55;21.82;-50.33;52.43;2
1.53;-6.37;-12.67;4.56;-72.67;37.53;2
1.91;-5.07;-13.32;-12.18;-83.6;20.81;2
1.44;-3.89;-13.03;-25.12;-95.61;-0.5;2
1.36;-2.6;-12.32;-34.46;-98.42;-20.84;2
1.87;-1.28;-12.3;-44.91;-81.75;-34.3;2
3.43;-0.15;-12.51;-55.93;-44.96;-46.63;2
4.27;0.07;-13.08;-69.05;9.5;-57.79;2
4.04;0.02;-12.7;-83.77;56.83;-67.17;2
3.41;-0.55;-11.91;-93.07;79.51;-72.07;2
2.64;-1.34;-10.8;-98.09;74.75;-76.91;2
1.78;-2.5;-8.94;-96.06;45.99;-77.58;2
1.06;-3.92;-7.38;-84.05;14.38;-75.43;2
0.93;-4.99;-7.03;-66.39;-3.17;-77.08;2
-0.43;-6.07;-7.37;-50.92;-2.43;-70.7;2
-1.29;-6.49;-8.15;-41.89;4.64;-60.11;2
-2.22;-7.16;-7.95;-35.74;27.89;-45.44;2
-3.88;-9.26;-6.04;-19.13;82.43;-24.33;2
-6.05;-8.92;-3.26;-1.3;161.8;2.99;2
0.01;-5.1;-8.11;-10.49;201.54;24.55;2
6.17;-3.77;-11.68;-36;106.17;14.34;2
8.57;-5.51;-13.44;-65.25;106.11;5.23;2
10.86;-8.48;-14.82;-77.93;141.03;-5.67;2
9.77;-12.9;-17.05;-48.41;102.78;-60.4;2
5.88;-18.17;-17.72;-28.34;62.79;-117.77;2
-0.73;-18.09;-15.34;-35.92;-42.46;-142.88;2
-7.36;-17.88;-11.78;-50.21;-87.17;-125.23;2
-12.33;-18.91;-10.77;-36.83;-65.84;-79.73;2
-11.42;-18.62;-12.08;-29.41;-7.37;-47;2
-3.94;-14.47;-13.31;-32.16;-28.82;-26.84;2
1.58;-13.84;-14.97;-42.74;-56.13;-25.01;2
4.93;-14.14;-15.57;-61.77;-66.65;-45.33;2
7.07;-14.73;-16.19;-74.57;-48.91;-76.09;2
7.38;-15.68;-16.65;-85.19;-13.47;-102.41;2
6.63;-16.24;-16.1;-98.09;30.8;-112.65;2
4.46;-17.7;-14.8;-109.96;65.84;-118.64;2
1.23;-19.21;-12.44;-115.11;90.32;-125.36;2
-2.29;-19.55;-9.28;-108.54;103.16;-124.97;2
-4.9;-18.02;-7.54;-85.39;106.9;-108.28;2
-6.59;-14.63;-7.24;-64.68;83.45;-92.78;2
-7.16;-12.98;-7.86;-51.14;62.9;-74.82;2
-7.37;-11.71;-7.91;-41.1;56.79;-54.91;2
-7.21;-10.41;-7.69;-30.18;50.28;-42.71;2
-7.63;-9.07;-6.73;-14.97;44.59;-35.89;2
-8.63;-7.64;-6.14;3.85;45.34;-28.98;2
-9.52;-6.03;-6.47;20.14;51.11;-15.56;2
-9.49;-4.19;-6.76;32.27;51.9;-0.99;2
-9.3;-2.63;-7.05;40.9;39.59;11.72;2
-8.62;-1.95;-7.55;46.42;17.83;22.61;2
-8.13;-1.47;-7.75;53.5;-7.22;33.81;2
-7.11;-0.38;-7.97;54.99;-29.72;56.25;2
-5.65;-0.9;-8.55;51.56;-43.42;78.14;2
-3.56;-2.6;-8.79;51.14;-45.49;94.28;2
-2;-4.08;-7.65;59.98;-51.67;97.5;2
-1.02;-6.01;-6.65;79.79;-46.49;94.38;2
-1.06;-7.31;-6.96;96.36;-39.91;93.62;2
-1.31;-8.92;-8.07;99.27;-40.56;100.65;2
-1.63;-11.71;-9.61;95.89;-51.51;115.47;2
-1.82;-16.9;-10.75;88.53;-80.91;130.25;2
-0.63;-19.55;-12.58;77.46;-117.01;130.44;2
0.44;-19.55;-10.99;88.34;-124.96;128.15;2
0.74;-19.55;-10.98;112.61;-133.39;136.95;2
1.08;-19.55;-12.43;121.22;-121.2;138.31;2
3.91;-19.55;-13.42;120.11;-67.07;128.44;2
2.1;-19.55;-11.15;117.14;-50.5;106.02;2
2.24;-19.14;-9.94;122.53;-28.16;115.37;2
1.75;-17.84;-9.13;121.34;-15.5;113.81;2
2.46;-17.33;-10.11;115.14;19.7;106.61;2
2.16;-16.45;-10.9;100.91;43.3;94.18;2
0.28;-15.5;-10.69;82.95;43.35;83.54;2
-0.94;-14.09;-10.11;69.82;29.32;79.68;2
-0.43;-12.39;-10.47;59.55;20.19;75.54;2
-0.26;-10.5;-11;44.57;5.3;67.12;2
0.02;-8.7;-11.51;27.62;-13.33;57.37;2
0.59;-7.48;-12.03;9.11;-33.88;44.36;2
1.02;-6.39;-12.46;-8.86;-50.33;28.57;2
1.67;-5.43;-12.79;-24.76;-54.98;10.95;2
1.95;-4.18;-12.88;-36.46;-51.04;-9.39;2
2.65;-2.61;-12.77;-46.92;-31.72;-31.34;2
2.53;-1.44;-12.15;-56.86;-1.4;-45.78;2
2.44;-1.36;-11.19;-65.02;31.31;-55.59;2
2.06;-1.47;-11.48;-73.57;63.56;-64.6;2
0.88;-2.09;-10.94;-81.4;85.63;-66.13;2
0.23;-2.71;-9.33;-84.66;83.29;-69.21;2
-1.65;-3.69;-7.88;-77.43;59.31;-62.72;2
-1.68;-4.43;-6.26;-54.6;22.3;-56.68;2
-2.47;-5.38;-6.11;-27.66;-8.56;-46.58;2
-2.41;-5.3;-7.41;-11.11;-28.21;-38.45;2
-2.68;-5.18;-8.45;-5.02;-27.62;-25.82;2
-3.31;-5.02;-9.5;1.65;8.49;-8.88;2
-3.12;-4.09;-10.32;-0.31;65.8;13.07;2
0.76;-1.48;-8.49;-21.67;112.39;25.17;2
7.38;-0.32;-4.65;-35.82;91.88;15.59;2
10.63;-0.24;-7.35;-19.47;59.84;-20.4;2
8.82;0.16;-12.45;-26.34;140.65;-39.64;2
7.55;-3.17;-16.51;-32.59;173.83;-53.69;2
5.39;-10.18;-20.28;-16.84;97.83;-104.14;2
1.11;-19.55;-21.68;-42.38;-17.57;-163.53;2
-5.32;-19.55;-20.54;-118.12;-168.59;-189.73;2
-19.55;-19.55;-7.28;-169.11;-41.62;-70.25;2
-13.31;-14.98;5.1;-51.99;40.41;34.16;2
2.67;-13.2;-6.37;36.98;-50.25;35.88;2
7.22;-12.07;-14.7;35.77;-33.15;-8.21;2
8.84;-9.49;-17.74;5.75;-26.86;-40.35;2
10.44;-9.79;-20.47;-29.51;-18.6;-78.94;2
9.67;-11.5;-20.98;-73.63;-9.5;-123.92;2
4.61;-15.85;-19;-123.24;-8.95;-153.11;2
-0.27;-19.55;-15.03;-153.24;2.26;-153.42;2
-4.06;-19.55;-8.36;-141.89;45.23;-121.69;2
-3.65;-19.55;-4.7;-86.99;52.56;-109.44;2
-3.67;-17.78;-7.03;-51.65;42.41;-105.99;2
-3.82;-15.25;-10.54;-56.37;39.69;-96.92;2
-4.87;-14.39;-10.67;-68.18;49.83;-80.56;2
-5.48;-14.31;-9.03;-69.34;56.32;-62.46;2
-5.48;-12.78;-7.11;-52.71;59.66;-50.56;2
-6.21;-11.23;-6.47;-24.39;44.38;-46.64;2
-7.34;-9.1;-7.46;-0.22;37.63;-44.78;2
-8.13;-6.82;-8.24;14.89;40.5;-40.56;2
-8.95;-4.87;-8.26;19.69;38.46;-24.19;2
-8.98;-3.24;-8.3;18.75;24.1;-3.88;2
-8.35;-2.47;-7.58;23.14;7.28;9.12;2
-8.23;-1.7;-6.89;36.77;-7.43;25.55;2
-7.26;-1.47;-7.41;50.61;-17.88;37.73;2
-5.59;-1.08;-8.07;53.03;-26.52;49.76;2
-4.02;-1.51;-8.47;45.15;-32.41;65.09;2
-2.52;-2.32;-7.86;35.23;-27.65;82.56;2
-0.96;-3.71;-6.78;39.77;-28.06;90.16;2
0.31;-5.57;-6.18;62.56;-27.56;86.53;2
-0.08;-6.34;-6.64;85.37;-39.3;87.79;2
-0.49;-7.95;-8.57;98.07;-46.13;92.11;2
-1.43;-10.31;-10.5;97.53;-58.44;94.98;2
-3.09;-13.06;-11.69;90.84;-82.84;108.51;2
-2.64;-19.17;-12.53;72.86;-110.46;117.05;2
-1.11;-19.55;-12.06;67.34;-116.92;118.86;2
1.13;-19.28;-10.41;85.85;-109.78;126.83;2
1.77;-19.55;-11.02;99.92;-97.19;123.02;2
3.06;-19.55;-12.05;103.74;-68.33;110.12;2
1.81;-19.55;-11.85;100.59;-61.78;94.45;2
1.27;-19.37;-11.38;98.01;-38.85;99.25;2
1.33;-19.44;-10.85;94.58;-12.69;102.26;2
1.2;-18.79;-10.63;89.27;7.22;101.81;2
1.15;-18.14;-10.98;83.63;19.64;94.67;2
0.92;-16.9;-11.34;71.65;17.17;84.63;2
-0.34;-14.96;-11.07;57.42;11.16;72.96;2
-1.15;-13.5;-10.66;43.82;5.12;64.63;2
-1.58;-11.9;-10.57;30.79;-5.88;56.72;2
-1.15;-9.95;-10.75;17.32;-23.63;48.37;2
-0.32;-7.98;-11.46;1.66;-41.35;36.52;2
-0.47;-6.79;-11.92;-16.19;-62.01;21.02;2
0.05;-5.53;-11.9;-30.68;-75.63;5.33;2
0.1;-4.68;-11.32;-39.22;-76.99;-13.6;2
0.22;-4.22;-11.21;-42.17;-70.51;-32.3;2
0.86;-3.92;-11.69;-44.42;-55.15;-44.61;2
1.88;-3.58;-12.2;-48.89;-26.68;-53.3;2
3.03;-2.99;-12.12;-55.74;6.04;-58.52;2
3.34;-2.92;-11.42;-57.93;35.21;-57.61;2
3.76;-3.23;-10.13;-53.78;53.74;-58.53;2
2.22;-3.78;-8.89;-48.43;51.35;-55.83;2
0.68;-4.3;-7.83;-42.57;30.25;-47.19;2
0.28;-4.49;-7.12;-34.71;5.8;-36.73;2
-0.02;-4.4;-7.37;-26.88;-7.86;-30.74;2
-0.05;-4.23;-8.54;-22.69;-6.09;-27.5;2
0.02;-3.72;-9.74;-25.41;6.29;-22.61;2
0.46;-3.24;-10.6;-34.4;25.48;-19.27;2
0.8;-3.39;-10.98;-46.53;51.62;-16.24;2
1.14;-3.7;-10.94;-55.26;91.77;-15.79;2
1.29;-4.05;-9.91;-60.45;132.56;-17.43;2
1.7;-4.78;-8.17;-58.95;163.74;-17.04;2
3.61;-4.34;-7.28;-44.97;149.15;-15.45;2
6.76;-4.52;-9.08;-37.18;92.99;-25.95;2
8.7;-5.3;-11.64;-41.15;115.93;-41.72;2
9.11;-8.11;-15.15;-35.56;173.45;-61.5;2
7.87;-14.31;-18.67;-14.88;156.03;-107.56;2
4.33;-19.55;-20.58;-13.45;65.41;-167.8;2
-3.94;-19.55;-18.52;-23.69;-139.57;-192.44;2
-14.84;-19.55;-13.44;-74.18;-246;-152.59;2
-19.7;-18.84;-5.06;-65.9;-43.65;-73.94;2
-9.41;-9.95;-4.19;-15.65;-30.49;6.55;2
0.62;-11.61;-12.41;-13.44;-26.11;36.15;2
8.15;-15.01;-18.64;-19.2;-0.21;21.03;2
13.34;-17.17;-19.35;-56.52;18;-26.37;2
14.85;-16.08;-17.72;-92.89;28.19;-81.06;2
8.82;-16.61;-12.49;-94.06;55.5;-112.01;2
2.93;-18.24;-10.35;-69.34;98.84;-110.65;2
-1.16;-18.83;-10.86;-52.37;101.65;-107.21;2
-3.46;-17.07;-11.77;-54.62;98.52;-104.68;2
-5.58;-14.93;-10.98;-64.15;77.03;-97.59;2
-6.23;-12.98;-9.33;-64.48;70.52;-79.7;2
-6.2;-11.77;-8.03;-53.33;48.87;-61.81;2
-5.36;-10.63;-8.24;-38.55;26.12;-49.5;2
-5.5;-9.94;-9.28;-24.36;15.85;-46.92;2
-6.14;-8.87;-9.05;-18;20.82;-47.64;2
-6.6;-7.64;-7.37;-14.68;29.84;-44.14;2
-7.66;-6.63;-5.39;1.61;38.32;-33.35;2
-8.41;-5.18;-5.39;27.85;44.29;-19.56;2
-8.81;-3.8;-6.65;42.98;36.35;-9.45;2
-8.61;-2.05;-7.55;46.65;14.76;-7.08;2
-8.65;-1.18;-7.94;49.36;-13.42;-3.52;2
-8.04;-0.33;-8.48;50.53;-42.88;17.6;2
-6.77;0.04;-8.75;52.92;-59.91;40.05;2
-4.8;-0.45;-8.95;50.24;-58.65;59.75;2
-2.67;-2.4;-8.6;42.49;-50.77;75.38;2
-1.09;-3.92;-7.46;47.69;-38.89;83.54;2
-0.87;-5.29;-6.76;71.12;-36.83;85.88;2
-1.38;-7.41;-7.92;88.85;-44.47;94.14;2
-2.28;-10.26;-9.68;90.58;-46.6;107.94;2
-4.38;-16.06;-11.11;87;-45.51;129.77;2
-4.87;-19.55;-13.59;62.23;-80.54;136.67;2
0.98;-19.55;-12.41;32.34;-88.04;113.77;2
-0.86;-17.13;-9.31;88.69;-95.81;126.83;2
-0.89;-18.6;-11.99;106.31;-109.95;153.54;2
0.74;-19.55;-13.56;88.51;-110.03;161.08;2
0.37;-19.55;-12.07;75.13;-118.1;152.69;2
4.88;-19.55;-12.96;83.38;-65.47;137.89;2
3.86;-19.55;-10.96;97.58;-53.95;124.77;2
2.2;-18.19;-10.48;97.56;-49.8;117.73;2
1.47;-16.51;-11.16;86.35;-27.52;116.64;2
1.04;-15.89;-12.04;70.82;-10.5;108.99;2
1.57;-15.06;-12.28;57.63;-5.89;95.45;2
2.98;-13.47;-12.21;48.46;-6.91;79.51;2
2.91;-11.29;-11.91;41.37;-25.45;65.16;2
3.53;-9.2;-12.1;37.1;-39.59;58.25;2
4.4;-7.65;-12.39;30.84;-49.46;48.68;2
4.79;-6.39;-12.45;21.24;-54.98;34.78;2
4.93;-5;-12.5;9.63;-52.99;19.6;2
4.03;-3.57;-11.76;0.53;-47.06;5.37;2
3.16;-2.24;-11.54;-11.86;-31.89;-1.85;2
3.59;-0.97;-11.36;-30.52;-2.94;-4.22;2
3.1;-0.74;-11.69;-48.57;34.83;-7.82;2
1.92;-1.07;-11.23;-59.08;70.06;-20.32;2
0.17;-1.77;-10.83;-63.44;85.12;-29.45;2
-1.56;-2.5;-9.64;-63.13;72.85;-33.1;2
-1.79;-3.13;-8.65;-56.66;53.04;-37.09;2
-1.35;-3.67;-8.38;-52.11;33.25;-42.19;2
-0.92;-4.81;-8.25;-48.09;20.74;-46.45;2
-0.57;-6.03;-7.81;-38.37;23.86;-54.61;2
-1.56;-6.71;-7.82;-18.63;44.16;-57.71;2
-2.49;-6.71;-8.12;7.76;79.81;-54.84;2
-2.99;-5.99;-7.42;34.27;120.3;-38.85;2
-2.16;-4.66;-5.55;43.59;161.88;-9.46;2
1.62;-2.05;-6.02;24.87;143.46;13.21;2
8.22;-0.33;-12.66;-0.62;43.39;11.18;2
9.94;0.28;-15.72;-36.92;77.54;6.09;2
10.31;-1.67;-15.6;-68.91;135.09;3.4;2
10.06;-6.16;-18.37;-60.83;142.2;-44.62;2
8.89;-13.49;-19.95;-40.56;119.09;-113.65;2
5.64;-19.55;-19.65;-59.76;58.7;-163.01;2
-0.38;-19.55;-17.25;-98.51;-70.88;-194.41;2
-12.35;-19.55;-8.83;-132.23;-87.17;-155.01;2
-19.01;-19.55;-6.85;-39.85;-6.3;-80.17;2
-8.97;-14.41;-8.72;10.76;-22.52;-38.28;2
-1.49;-13.79;-12.23;-7.44;-46.1;-28.13;2
2.58;-12.58;-12.84;-32.21;-61.75;-25.57;2
5.27;-12.75;-13.66;-34.9;-54.46;-39.24;2
6.89;-13.47;-14.7;-35.99;-26.71;-63.63;2
6.71;-14.47;-15.72;-36.45;6.54;-80.95;2
7.75;-15.22;-18.18;-53.09;61.06;-98.79;2
6.57;-16;-17.18;-80.15;77.6;-116.88;2
4.38;-17.6;-14.9;-110.27;86.74;-129.56;2
-0.98;-19.02;-10.89;-115.16;107.98;-133.78;2
-5.63;-18.19;-7.78;-86.79;110.41;-128.82;2
-7.29;-14.9;-7.6;-57.78;106.87;-111.05;2
-8.18;-13.01;-9;-46.28;79.12;-101.04;2
-9.07;-11.47;-9.12;-47.73;59.97;-87.56;2
-10.22;-10.62;-8.56;-42.86;42.26;-71.74;2
-10.86;-10.29;-7.73;-27.43;25.03;-58.35;2
-11.2;-9.29;-6.16;-7.05;11.72;-44.17;2
-11.31;-7.83;-5.61;7.94;20.06;-27.24;2
-11.46;-6.39;-5.41;21.67;32.34;-10.03;2
-11.66;-4.68;-6.39;34.82;27.28;2.78;2
-10.89;-2.61;-7.62;43.93;3.58;11.8;2
-8.07;-1.92;-8.01;49.85;-27.42;12.3;2
-9.01;-0.07;-7.71;56.67;-56.42;38.44;2
-7.66;0.85;-8.08;58.46;-72.52;69.7;2
-5.57;-1.56;-8.4;52.79;-65.76;97.68;2
-3.24;-4.51;-7.91;46.69;-52.26;119.72;2
-1.14;-7.56;-6.21;61.52;-41.39;122.76;2
-1.49;-9.69;-4.73;98.6;-38.64;117.83;2
-3.67;-11.43;-6.84;112.06;-52.1;126.49;2
-5.69;-16.11;-8.47;113.49;-88.39;141.39;2
-4.91;-19.55;-11.03;97.99;-142.25;154.78;2
2.34;-19.55;-14;88.08;-121.73;156.35;2
2.85;-19.55;-12.78;112.54;-119.46;156.34;2
1.58;-19.46;-13.62;126.33;-136.78;169.06;2
2.15;-19.55;-14;123.44;-134.41;165.52;2
4.9;-19.55;-13.77;126.14;-75.76;131.67;2
1.71;-19.55;-10.06;140.25;-65.96;121.33;2
1.1;-19.42;-9.15;148.26;-48.68;131.09;2
0.69;-17.55;-9.72;140.64;-12.87;132.06;2
0.02;-16.08;-10.72;125.53;21.32;130.42;2
0.39;-15.73;-11.35;106.79;36.93;122.46;2
0.49;-14.71;-10.47;93.01;33.48;114.79;2
0.32;-13.88;-9.94;89.34;5.64;106.34;2
0.6;-12.28;-10.61;85.35;-27.88;100.7;2
1.09;-10.12;-11.26;75.67;-59.21;96.02;2
2.43;-8.19;-12.23;59.07;-79.88;81.82;2
3.26;-6.38;-12.82;39.47;-92.5;60.05;2
3.53;-4.56;-12.9;21.74;-97.78;35.98;2
3.36;-2.95;-12.69;7.03;-98.75;9.73;2
2.14;-1.71;-12.43;-6.02;-94.04;-3.07;2
2.51;-1.01;-11.94;-21.66;-77.63;-11.46;2
3.72;0.04;-12.55;-37.03;-37.68;-23.67;2
5.24;0.9;-13.56;-49.85;29.71;-34.81;2
5.98;1.63;-14.35;-64.98;99.83;-44.43;2
6.25;1.81;-14.75;-89.53;142.22;-61.66;2
4.65;1.13;-14.14;-120.63;139.23;-82.08;2
2.8;-0.54;-12.22;-143.92;104.33;-95.34;2
0.73;-2.56;-8.33;-140.92;66.37;-97.43;2
-0.64;-5.15;-5.89;-103.18;55.2;-95.75;2
-2.21;-6.96;-6.6;-62.37;70.74;-95.98;2
-4.56;-7.38;-9.38;-42.92;93.66;-80.71;2
-5.15;-6.92;-11.01;-45.03;120.61;-57.39;2
-1.1;-5.83;-9.36;-67.66;124.75;-41.04;2
1.9;-5.01;-3.51;-87.55;105.51;-37.36;2
4.71;-5.85;-7.64;-64.49;67.21;-44.45;2
5.4;-6.91;-12.17;-49.13;44.16;-50.79;2
7.14;-12.42;-15.53;-55.47;41.06;-73.4;2
7.19;-19.55;-18.98;-61.18;75.76;-120.66;2
2.78;-19.55;-18.63;-64.93;39.99;-154.84;2
-5.86;-19.55;-13.58;-81.69;-20.65;-126.91;2
-14.36;-17.12;-7.97;-90.49;-4.39;-73.5;2
-12.6;-16.35;-5.24;-60.05;-6.77;-26.77;2
-4.15;-16.14;-7.15;-16.11;-47.49;-21.37;2
0.36;-13.88;-10.92;5.5;-67.05;-29.71;2
2.76;-10.89;-13.77;-0.47;-64.95;-37.66;2
4.35;-10;-15.88;-19.05;-49.26;-49.82;2
6.1;-10.11;-17.39;-44.29;-18.4;-68.81;2
6.32;-11.72;-17.5;-73.74;14.5;-89.9;2
5.55;-14.8;-16.17;-104.15;33.09;-110.46;2
2.47;-18.57;-13.42;-123.98;51.86;-119.66;2
-1.63;-19.55;-9.62;-115.92;85.29;-113.37;2
-4.27;-18.67;-8.63;-80.06;102.04;-103.87;2
-6.59;-16.78;-9.09;-57.69;86.96;-93.26;2
-8.44;-14.94;-9.81;-52.15;72.39;-75.56;2
-9.98;-13.92;-8.89;-50.24;49.5;-58.75;2
-11.2;-12.82;-5.89;-37.02;43;-46.08;2
-12.41;-11.46;-2.96;-7.53;42.49;-34.82;2
-13.56;-9.96;-3.27;22.89;38.22;-15.82;2
-12.93;-7.58;-4.77;36.86;40.56;7.21;2
-11.61;-5.19;-6.12;41.54;33.53;26.89;2
-10.61;-3.4;-6.2;52.09;16.36;41.53;2
-9.47;-1.86;-6.01;67.55;-14.11;61.19;2
-7.85;-1.05;-6.26;79.86;-41.8;79.4;2
-4.19;-2.5;-8.01;90.99;-39.92;89.62;2
-2.24;-4.2;-7.89;102.09;-32.24;82.86;2
-2.91;-4.85;-5.77;105.12;-67.58;80.26;2
-3.16;-6.01;-6.5;114.66;-75.68;94.12;2
-2.48;-7.57;-7.51;120.05;-78.72;109.38;2
-1.86;-10.17;-9.14;124.37;-89.92;123.06;2
-3.42;-13.65;-11.14;126.26;-116.77;143.63;2
-1.65;-19.32;-12.84;113.47;-150.96;165.47;2
1.67;-19.55;-14.94;95.06;-131.93;165.95;2
2.8;-19.55;-11.76;105.23;-100.14;163.22;2
3.43;-19.55;-12.83;123.08;-48.17;161.89;2
4.25;-19.03;-13.16;120.44;5.12;144.36;2
2.38;-16.22;-11.45;110.26;11.43;128.67;2
0.1;-15.51;-9.79;99.34;-1.09;115.96;2
-2.73;-15.67;-9.23;96.43;-8.14;115.93;2
-3.18;-15.19;-9.62;97.53;-11.62;116.2;2
-1.79;-14.22;-10.64;87.98;-17.4;109.06;2
-0.91;-12.51;-10.53;73.85;-26.36;96.26;2
0.2;-10.91;-10.16;60.01;-39.78;80.54;2
0.79;-8.9;-10.27;49.12;-60.74;63.51;2
1.94;-6.84;-11.13;34.43;-77.36;48.8;2
1.95;-5.95;-11.94;14.38;-93.56;30.25;2
2.19;-4.95;-12.58;-7.72;-100.55;12.93;2
2.32;-4.04;-12.69;-28.65;-106.26;-4.24;2
3.3;-3;-12.5;-46.31;-102.49;-20.63;2
2.74;-2.25;-12.45;-63.58;-89.08;-31.98;2
3.36;-1.2;-12.2;-81.71;-68.24;-45.68;2
4.25;-0.58;-12.29;-100;-31.09;-61.14;2
5.95;-0.45;-12.18;-114.09;27.18;-79.27;2
6.52;-1.66;-12.03;-122.9;94.32;-100.1;2
4.6;-3.02;-12.32;-129.41;148.6;-120.88;2
1.4;-4.92;-11.61;-141.01;162.31;-131.75;2
-1.1;-6.72;-8.74;-148.15;133.9;-131.44;2
-4.13;-10.24;-4.45;-127.73;82.12;-122.88;2
-6.96;-12.37;-4.35;-85.41;49.2;-101.47;2
-7.13;-12.21;-5.89;-51.66;36.12;-75.5;2
-9.77;-11.68;-7.69;-35.93;20.8;-32.47;2
-9.94;-11.02;-9.58;-22.53;42.89;5.89;2
-9.71;-9.2;-10.48;-10.37;99.83;48.13;2
0.61;-3.17;-9.17;-32.21;138.58;77.89;2
11.17;-2.41;-2.66;-82.98;73.07;85.19;2
19.52;-7.12;1.09;-45.57;-32.1;29.8;2
17.63;-9.75;-8.16;11.17;69;-41.89;2
10.37;-10.07;-13.71;40.01;122.72;-82.14;2
6.09;-13.09;-20.12;45.45;128.79;-102;2
4.52;-16.35;-20.61;21.14;93.09;-126.12;2
2.05;-13.81;-19.33;-10.15;34.84;-127.7;2
1.17;-12.2;-17.95;-30.79;16.88;-121.59;2
-1.36;-13.06;-18.39;-48.86;8.36;-135.46;2
-3.67;-15.08;-17.96;-66.29;-22.81;-139.26;2
-6.32;-17.9;-17.49;-95.73;-63.33;-128.9;2
-8.28;-19.55;-15.64;-132.09;-83.48;-108.2;2
-8.23;-19.55;-11.64;-157.53;-37;-78.03;2
-2.34;-16.8;-6.53;-133.1;-11.36;-52.59;2
4.05;-17.41;-5.03;-80.53;-13.25;-58.85;2
5.86;-17.8;-8.21;-55.15;3.54;-79.85;2
5.1;-16.86;-11.33;-64.57;41.3;-96.94;2
2.75;-16.59;-12.23;-82.28;78.17;-104.44;2
-0.74;-17.68;-11.02;-89.11;104.52;-99.57;2
-4.61;-17.09;-8.73;-75.65;115.29;-87.14;2
-9.18;-16.23;-6.97;-45.37;104.26;-75.88;2
-13.08;-13.48;-6.07;-11.53;95.96;-64.52;2
-15.26;-10.31;-6.09;11.11;74.15;-47.83;2
-16.23;-7.24;-6.28;20.29;45.15;-19.3;2
-15.24;-4.79;-5.81;18.39;24.19;16.21;2
-11.94;-3.54;-5.2;20.04;-14.83;48.21;2
-8.5;-3.69;-6.97;42.63;-50.79;60.4;2
-6.61;-3.41;-9.11;63.1;-51.62;63.62;2
-5.19;-2.96;-9.72;67.63;-37.5;62.75;2
-5.01;-1.82;-8.47;61.59;-37.07;73.4;2
-5;-1.98;-7.7;59.88;-53.64;85.23;2
-5.44;-3.55;-6.8;70.6;-67.1;96.25;2
-4.3;-6.23;-7.1;84.49;-44.2;109.22;2
-3.32;-7.72;-7.28;94.34;-15.68;121;2
-3.39;-9.18;-6.2;95.79;-36.59;129.28;2
-4.13;-12.34;-7.54;110.08;-97.17;146.21;2
-4.65;-16.51;-9.62;125.8;-140.47;165.67;2
-4.14;-19.55;-10.91;129.5;-185.23;187.11;2
-2.4;-19.55;-11.95;132.74;-205.45;193.41;2
1.22;-19.55;-11.72;147.28;-190.59;194.05;2
2.9;-19.55;-12.48;155.58;-156.24;189.71;2
6.36;-19.55;-13.71;156.27;-76.62;173.69;2
7.05;-19.55;-11.7;157.17;-9.86;151.7;2
4.83;-18.38;-10.2;158.76;16.26;145.6;2
2.48;-16.3;-10.3;152.01;32.35;136.6;2
-0.83;-14.9;-10.37;137.68;49.37;131.28;2
-1.87;-14.58;-10;121.43;63.16;132.23;2
-2.18;-14.7;-8.83;109.24;54.01;126.5;2
-1.58;-13.51;-8.56;100.3;26.01;120.63;2
-0.44;-12.36;-9.16;89.6;-10.86;111.52;2
0.73;-10.09;-10.25;74.88;-40.26;97.92;2
0.85;-7.52;-10.81;55.47;-60.27;75.92;2
0.57;-5.23;-11;36.24;-71.71;47.33;2
0.43;-3.69;-10.98;19.66;-75.2;19.08;2
-0.03;-2.71;-11.53;2.87;-80.55;-5.3;2
0.12;-2.52;-12.09;-15.74;-76.84;-21.27;2
1.89;-2.49;-11.98;-31.95;-67.17;-42.17;2
2.74;-2.39;-12.46;-50.86;-47.55;-57.65;2
4.75;-1.58;-13.03;-72.54;-10.99;-70.12;2
6.64;-0.98;-13.74;-98.96;41.9;-80.5;2
7.29;-1.75;-13.23;-119.43;100.29;-94.82;2
4.65;-3.89;-11.67;-130.05;144.1;-106.62;2
1.8;-5.87;-10.02;-134.34;153.35;-105.13;2
-0.28;-7.54;-8.25;-134.3;135.9;-100.53;2
-2.62;-8.76;-6.43;-118.38;119.77;-92.94;2
-4.38;-9.03;-6.58;-90.37;119.21;-85.03;2
-6.54;-8.66;-8.4;-68.87;126.22;-76.93;2
-8.02;-6.89;-10.03;-59.86;133.58;-61.75;2
-6.2;-4.29;-9.38;-65.32;134.23;-39.36;2
-1.52;-1.83;-6.73;-80.65;81.52;-21.82;2
2.7;-1.9;-6.88;-66.77;29.03;-27.23;2
4.2;-3.04;-8;-35.86;-7.51;-36.16;2
3.7;-5.19;-10.03;-16.36;-28.2;-48.44;2
1.52;-7.54;-13.26;-11.91;-8.43;-66.98;2
-0.24;-9.94;-14.69;-22.28;-13.31;-82.95;2
-0.59;-17.41;-15.71;-59.32;-20.14;-101.66;2
-2.28;-19.55;-14.97;-90.28;-37.5;-109.33;2
-6.49;-19.55;-10.47;-90.18;-48.83;-85.59;2
-8.49;-15.06;-6.62;-43.97;-24.45;-46.62;2
-4.13;-13.57;-8.4;-17.53;-32.48;-31.7;2
-0.74;-13.58;-11.84;-24.24;-57.95;-36.37;2
1.42;-12.53;-12.54;-45.55;-60.2;-43.09;2
3.28;-12.08;-13.08;-61.09;-43.71;-50.33;2
5.38;-13.09;-13.88;-67.72;-13.15;-67.43;2
6.03;-14.47;-14.49;-71.47;17.9;-90.67;2
5.12;-15.71;-15.15;-74.86;53.95;-109.61;2
3.43;-17.7;-15.73;-86.52;84.92;-121.3;2
0.07;-19.55;-14.17;-108.16;97.16;-129.91;2
-3.16;-19.55;-11.33;-116.66;106.03;-131.45;2
-5.5;-19.55;-8.9;-93.08;107.09;-126.38;2
-7.03;-17.7;-8.44;-63.53;88.35;-117.48;2
-8.81;-15.9;-9.33;-47.06;75.97;-100.69;2
-10.3;-14.29;-9.41;-44.85;63.01;-82.82;2
-10.66;-11.58;-7.13;-45.47;68.53;-63.15;2
-10.79;-9.71;-3.56;-34.84;68.4;-42.8;2
-10.76;-8.22;-2.39;-2;41.1;-30.22;2
-10.77;-6.33;-4.49;35.29;22.67;-16.77;2
-10.45;-4.12;-6.48;47.23;19.94;-1.61;2
-9.62;-2.17;-7.75;45.33;10.34;19.11;2
-7.34;-1.13;-8.37;46.64;-12.36;22.3;2
-8.07;-0.15;-7.57;53.49;-38.26;44.33;2
-7.53;-0.86;-7.5;62;-48.45;64.49;2
-6.24;-2.24;-7.06;68.92;-41.5;86.42;2
-3.75;-4.07;-7.38;71.18;-30.67;104.34;2
-0.96;-5.61;-6.56;75.84;-27.81;113.17;2
0.06;-8.14;-6.92;92.99;-44.18;112.11;2
-1.27;-9.14;-8.12;108.4;-75.3;108.21;2
-3.13;-11.45;-10.12;113.01;-97.54;119.56;2
-5.49;-15.74;-11.56;106.83;-125.54;149.68;2
-3.68;-19.55;-11.78;90.5;-144;172.05;2
0.02;-19.55;-9.76;99.2;-125.77;173.44;2
1.39;-19.01;-9.38;128.72;-102.08;174.51;2
2.05;-17.13;-10.87;142.65;-86.52;181.15;2
6.8;-19.55;-13.53;141.85;-13.21;157.75;2
4.77;-17.43;-10.45;135.53;10.29;124.79;2
2.83;-16.85;-9.19;138.37;34.93;124.82;2
0.66;-15.72;-8.78;131.33;47.29;125.31;2
-2.7;-15.04;-9.1;119.56;53.08;126.96;2
-2.49;-14.87;-8.81;109.46;47.63;126.83;2
-2.32;-14.19;-8.43;98.95;26.16;114.6;2
-2.06;-12.61;-8.01;88.89;-1.23;100.98;2
-1.27;-10.61;-8.41;78.65;-26.4;88.13;2
-0.53;-9.09;-9.29;65.89;-50.39;71.29;2
-1.14;-7.81;-10.5;48.51;-73.87;50.51;2
-1.16;-6.59;-11.46;30.61;-91;30.76;2
-0.95;-5.46;-11.66;12.92;-96.16;9.95;2
-1.22;-4.47;-11.21;-0.5;-103.59;-8.43;2
-1.13;-3.31;-10.69;-9.88;-111.39;-23.01;2
-0.7;-2.17;-10.48;-21.43;-112.62;-30.76;2
0.51;-1.35;-11.1;-38.08;-95.01;-34.41;2
2.27;-1.03;-11.89;-57.56;-60.17;-47.61;2
3.59;-0.88;-13.07;-80.63;-12.87;-56.56;2
4.52;-1.78;-13.58;-105.73;43.09;-67.37;2
4.65;-3.49;-13.69;-130.61;88.7;-82.25;2
2.35;-5.35;-12.64;-149.54;113.08;-88.42;2
1.1;-7.51;-10.37;-155.15;112.46;-87.23;2
0.19;-8.77;-7.19;-140.68;92.38;-87.14;2
-1.64;-10.54;-4.92;-109.15;72.86;-75.8;2
-3.57;-10.33;-4.73;-75.74;55.67;-66.57;2
-4.4;-8.62;-5.9;-47.97;50.21;-57.61;2
-4.27;-6.94;-7.06;-24.08;60.44;-51.27;2
-5.54;-5.49;-8.08;-12.88;87.88;-38.6;2
-4.27;-3.9;-7.9;-10.92;112.62;-21.85;2
0.51;-0.96;-7.17;-26.58;126.09;-12.14;2
4.62;0.57;-7.73;-44.14;81.27;-14.68;2
5.75;-0.77;-13.71;-50.92;43.43;-17.34;2
6.06;-2.12;-15.1;-49.1;61.16;-30.77;2
4.4;-6.45;-16.57;-36.47;52.25;-60.47;2
4.23;-12.15;-17.81;-22.6;4.46;-95.1;2
3.84;-18.19;-17.87;-72.39;-36.52;-129.44;2
0.24;-19.55;-16.19;-143.49;-55.62;-161.08;2
-10.23;-19.55;-3.09;-142.77;15.72;-111.35;2
-11.67;-19.55;4.17;-10.45;23.83;-35.21;2
-1.21;-13.91;-9.08;29.4;-47.01;-36.62;2
1.14;-12.14;-14.72;4.81;-74.42;-43.74;2
2.68;-11.33;-16.3;-25.41;-55.07;-43.71;2
4.66;-11.64;-17.31;-55.76;-21.41;-62.98;2
6.35;-12.92;-18.07;-82.97;19.26;-93.6;2
6.79;-14.75;-17.76;-104.8;47.06;-117.07;2
5.49;-18.15;-15.67;-120.63;48.97;-140.99;2
1.31;-19.55;-12.43;-118.7;64.03;-153.17;2
-3.53;-19.55;-10.31;-100.06;74.16;-150.09;2
-6.6;-18.72;-10.32;-77.4;73.26;-137.5;2
-7.56;-15.57;-9.84;-76.17;82.37;-114.25;2
-9.14;-14.45;-8.96;-83.07;70.38;-90.03;2
-9.55;-13.6;-7.3;-76.39;63.12;-70.56;2
-10.6;-12.32;-4.47;-52.88;57.21;-57.33;2
-12.39;-10.31;-3.23;-22.86;49.2;-36.09;2
-12.91;-7.71;-3.78;4.09;34.67;-13.82;2
-12.73;-5.23;-4.3;20.47;13.33;2.78;2
-12.16;-3.51;-4.08;34.77;-3.17;20.42;2
-10.03;-2.35;-5.65;48.79;-13.27;37.08;2
-7.69;-1.31;-6.98;56.36;-21.84;58.29;2
-5.53;-0.78;-7.62;63.54;-34.62;74.93;2
-3.62;-3.05;-8.04;70.55;-47.51;87.91;2
-2.53;-5.46;-8.61;75.9;-41.33;98.56;2
-1.37;-6.3;-8.22;80.11;-27.68;103.19;2
-1.98;-6.67;-6.84;86.12;-41.07;110.13;2
-2.48;-8.86;-7.64;99.75;-45.19;113.37;2
-3.32;-10.14;-8.78;105.52;-67.97;116.78;2
-3.49;-12.93;-9.93;106.22;-93.42;130.61;2
-3.2;-19.02;-11.47;100.56;-126.47;143.22;2
-0.12;-19.55;-13.06;96.64;-116.19;146.28;2
0.69;-19.55;-11.54;109.14;-96.09;154.99;2
1.29;-18.06;-11.54;121.72;-85.33;167.07;2
4.38;-19.55;-13.26;125.57;-44.46;161.31;2
4.5;-19.43;-12;125;-13.53;129.89;2
1.97;-16.89;-10.27;129.59;-22.97;121.83;2
0.88;-16.71;-10.49;128.92;-17.65;123.19;2
-0.94;-15.84;-10.36;116.34;-13.02;123.79;2
-1.67;-15.16;-10.65;103.75;1.22;126.08;2
-1.12;-14.52;-10.37;90.8;6.06;122.35;2
-0.28;-13.28;-9.39;79.17;-1.47;114.2;2
0.73;-12.19;-8.88;70.27;-16.8;101.83;2
1.28;-10.12;-9.22;61.76;-36.3;87.96;2
0.61;-8.26;-10.36;45.64;-56.49;72.41;2
0.31;-6.8;-11.19;26.21;-72.76;56.35;2
0.32;-5.5;-11.31;10.13;-87.75;36.47;2
0.55;-3.85;-11.31;-2.46;-98.86;16.84;2
0.69;-2.57;-11.42;-13.87;-104.79;-3.44;2
0.86;-1.54;-11.63;-27.64;-98.17;-20.01;2
1.65;-0.79;-11.68;-44.13;-76.88;-34.91;2
3.04;-0.39;-11.23;-60.4;-41.84;-54.59;2
3.53;-0.59;-11.06;-75.27;4.74;-69.95;2
3.46;-1.73;-11.35;-90.95;59.33;-82.27;2
2.39;-3.06;-11.11;-105.08;103.06;-90.53;2
0.5;-4.74;-10.35;-117.57;115.46;-92.13;2
-0.57;-5.97;-8.24;-113.95;102.02;-87.85;2
-2.71;-7.53;-6.67;-88.85;93.92;-78.01;2
-3.9;-7.78;-8.68;-56.8;93.73;-66.05;2
-4.44;-6.92;-10.09;-35.61;93.56;-47.52;2
-3.29;-5.03;-11.36;-32.09;106.59;-26.88;2
-0.85;-2.61;-11.04;-62.31;108.16;-8.93;2
2.56;-1.69;-3.56;-101.14;82.14;-5.66;2
3.89;-5.48;-1.76;-67.78;64.98;-24.69;2
-0.17;-7.72;-11.05;-19.21;77.72;-36.53;2
-4.54;-11.81;-13.92;-21.7;40.58;-39.13;2
-4.35;-19.55;-14.7;-42.05;-26.19;-37.92;2
-3.26;-19.55;-14.21;-59.95;-51.03;-44.69;2
-2.03;-19.55;-9.55;-17.64;12.8;-16.98;2
2.37;-9.35;-8.58;18.54;-5.07;-2.34;2
4.27;-5.22;-12.16;7.45;7.89;-4.83;2
5.75;-5.64;-14.97;-24.41;30.67;-19.33;2
6.77;-8.3;-15.81;-51.51;43.88;-51.64;2
5.74;-12.3;-14.17;-73.82;37.83;-90.2;2
1.52;-15.78;-12.37;-76.7;41.04;-111.69;2
-1.41;-19.55;-11.89;-58.24;21.08;-120.22;2
-2.83;-19.55;-12.86;-47.02;-11.19;-122.72;2
-3.21;-18.49;-13.81;-41.05;-17.83;-117.31;2
-2.8;-15.33;-13.84;-45.37;-26.03;-114.04;2
-2.45;-14.38;-14.02;-59.6;-22.1;-107.84;2
-1.75;-13.45;-13.78;-79.85;-0.21;-102.17;2
-1.37;-13.52;-12.26;-100.44;20.27;-100.04;2
-0.97;-14.4;-10.48;-109.44;45.98;-97.14;2
-1.25;-16.15;-9.31;-102.02;77.45;-97.47;2
-2.9;-16.6;-8.57;-89.66;94.89;-95.99;2
-6.4;-15.16;-7.2;-73.37;98.9;-90.7;2
-9.67;-12.76;-4.91;-51.63;101.65;-78.81;2
-11.77;-10.16;-2.59;-26.26;95.48;-61.88;2
-13.18;-7.86;-1.28;7.98;72.92;-42.09;2
-13.57;-5.74;-2.6;39.13;49.34;-22.47;2
-13.02;-3.33;-4.7;49.82;38.06;-4.59;2
-11.14;-1.67;-6.11;53.42;28.68;10.83;2
-9.65;-0.28;-7.36;55.14;16.33;35.09;2
-8.17;1;-7.56;57.65;-2.78;55.74;2
-6.13;0.24;-7.76;54.5;-14.34;75.83;2
-4.65;-1.57;-7.69;54.77;-30.93;91.48;2
-2.43;-4.81;-8.06;70.9;-48.78;92.36;2
-2.63;-5.53;-7.24;91.11;-68.98;83.21;2
-3.94;-7.12;-8.19;103.36;-79.47;84.85;2
-4.75;-8.71;-9.8;105.4;-102.75;96.36;2
-4.82;-11.49;-11.52;105.9;-144.13;110.92;2
-5.7;-18.63;-13.73;91.63;-190.7;120.85;2
-2.81;-19.55;-16.28;60.22;-169.5;132.1;2
0.9;-19.55;-9.87;67.07;-107.55;141.75;2
3.39;-16.83;-7.33;104.97;-79.97;152.7;2
6.5;-18.42;-9.93;119.16;-24.39;147.98;2
4.96;-17.43;-9.66;114.77;0.99;117.7;2
1.74;-15.24;-8.73;111.66;-3.67;112.34;2
-0.58;-15.57;-8.65;108.4;11.09;113.9;2
-1.31;-15.76;-8.7;98.56;33.11;112.41;2
-2.24;-16.46;-8.54;89.95;41.32;110.96;2
-1.94;-16.16;-8.88;85.94;36.09;108.15;2
-1.54;-14.6;-9.33;79.29;17.77;101;2
-1.42;-12.92;-9.43;68.51;-9.7;92.63;2
-1.04;-10.82;-9.74;59.91;-33.26;86.42;2
-0.79;-8.61;-10.84;45.92;-65.35;76.7;2
-0.39;-6.84;-11.86;26.4;-98.2;62.22;2
0.22;-5.27;-12.83;5.34;-121.6;43.63;2
1.01;-3.83;-13.23;-14.78;-125.06;22.59;2
1.12;-3.03;-13.18;-32.63;-120.08;0.64;2
1.07;-2.43;-12.43;-49.59;-105.14;-19.37;2
1.07;-1.58;-11.29;-65.15;-85.04;-38.82;2
1.35;-1.4;-10.77;-79.63;-62.94;-57.95;2
1.64;-1.79;-10.26;-91.34;-32.29;-73.09;2
2.29;-2.26;-10.36;-99.05;2.92;-82.7;2
2.91;-3.07;-10.43;-105.16;33.49;-88.28;2
2.56;-4.89;-9.58;-108.7;51.77;-89.84;2
1.36;-7;-7.62;-103.55;50.39;-87.36;2
-0.81;-9.05;-5.49;-85.63;35.67;-74.42;2
-3.7;-10.36;-5.61;-59.72;37.98;-52.3;2
-5.78;-9.32;-7.37;-40.16;62.25;-25.91;2
-5.09;-7.27;-9.87;-30.79;102.8;-9.66;2
-5.58;-4.89;-10.3;-40.85;161.86;8.54;2
-2.27;-3.18;-8.98;-58.88;187.73;21.12;2
3.31;-1.8;-6.75;-72.57;116.38;20.99;2
6.55;-3.26;-6.62;-58.82;14.68;0.73;2
6.24;-6.35;-8.44;-35.39;-3.23;-17.32;2
4.88;-11.1;-10.95;-24.34;-9;-21.75;2
3.57;-17.61;-15.56;-13.81;-5.53;-40;2
2.76;-19.55;-17.33;-19.44;16.55;-67.88;2
2.09;-19.3;-15.83;-19.34;63.03;-61.83;2
0.49;-11.58;-13.66;-11.82;47.25;-47.07;2
0.86;-8.44;-13.38;-24.4;29.13;-48.84;2
1.89;-10.03;-13.94;-55.2;41.48;-63.21;2
2.38;-13.58;-13.97;-81.02;48.9;-81.25;2
2.54;-16.36;-12.66;-88.53;32.66;-96.53;2
1;-17.6;-12.56;-66.5;8.08;-106.39;2
-0.43;-18.07;-14.41;-43.46;-20.3;-116.24;2
-1.2;-17.69;-15.92;-37.86;-33.2;-124.17;2
-1.73;-16.73;-16.96;-49.34;-31.42;-131.1;2
-1.96;-16.09;-17.34;-76.67;-22.89;-133.63;2
-1.86;-15.18;-16.59;-111.99;-18.12;-128.27;2
-0.63;-14.37;-14.68;-145.05;1.09;-117.63;2
-1.1;-15.2;-11.23;-163.47;11.02;-112.17;2
-1.75;-16.36;-7.08;-148.29;42.2;-102.66;2
-3.57;-17.4;-5.56;-113.35;61.83;-92.7;2
-4.96;-16.63;-5.7;-87.97;73.5;-81.54;2
-6.57;-14.45;-6.08;-72.05;64.76;-70.92;2
-8.06;-12.39;-4.8;-56.47;47.29;-64.22;2
-8.79;-9.96;-3.05;-32.71;41.54;-52.39;2
-9.15;-8.03;-2.21;2.66;41.07;-40.73;2
-10.35;-6.07;-3.82;30.62;52.44;-21.58;2
-10.91;-4.03;-5.29;45.35;53.57;-1.46;2
-10.93;-1.75;-6.42;51.94;39.33;20.47;2
-9.92;-0.86;-6.95;49.31;23.61;41.43;2
-8.6;-0.94;-6.73;45.97;12.64;70.18;2
-5.4;-1.15;-6.22;57.47;-22;90.43;2
-1.57;-3.85;-6.27;81.84;-53.08;100.54;2
-0.64;-5.4;-6.43;110.42;-60.8;91.21;2
-0.81;-5.99;-7.6;129.36;-46.36;78.79;2
-2.21;-5.85;-8.83;128.88;-57.35;81.36;2
-3.07;-7.69;-11.3;119.89;-68.63;96.03;2
-3.45;-11.01;-12.93;106.52;-92.84;114.25;2
-3.14;-16.74;-13.52;90.79;-106.75;135.55;2
-0.72;-19.55;-14.52;70.11;-101.33;137.69;2
0.46;-19.55;-9.96;90.46;-88.74;131.21;2
0.78;-18.04;-9.39;129.31;-89.72;143.13;2
3.19;-18.89;-11.97;135.44;-63.69;143.87;2
5.57;-19.55;-12.88;123.28;-28.17;120.69;2
4.53;-18.05;-12.05;115.95;-13.15;98.19;2
2.9;-17.04;-11.94;109.24;5.24;100.89;2
1.76;-16.18;-11.96;98.46;22.45;105.97;2
1.97;-16.03;-11.92;83.08;42.24;100.81;2
1.87;-15.55;-12.1;69.2;50.87;88.45;2
1.52;-14.27;-11.92;55.72;44.7;74.38;2
0.76;-13.21;-11.69;39.57;25.95;58.92;2
0.36;-11.18;-11.52;28.66;-0.25;50.4;2
1.04;-8.88;-11.84;18.72;-31.25;40.08;2
2.39;-6.59;-13;0.38;-50.59;26.25;2
2.89;-4.89;-13.95;-21.61;-64.92;3.14;2
3.23;-3.73;-14.39;-38.65;-67.59;-21.72;2
2.56;-2.77;-13.79;-47.17;-70.59;-48.74;2
0.56;-1.67;-12.59;-50.77;-64.71;-59.21;2
3.23;-1.7;-12.83;-54.97;-39.72;-75.07;2
4.07;-1.58;-12.75;-66.43;-1.65;-91.11;2
3.02;-2.38;-11.69;-80.22;25.74;-99.5;2
1.61;-4.05;-9.47;-87.11;31.45;-100.68;2
0.15;-5.53;-7.49;-79.08;23.58;-95.98;2
-0.69;-7.32;-7.39;-64.12;11.32;-89.04;2
-2;-8.07;-9.2;-58.32;8.07;-74.5;2
-2.75;-7.86;-10.82;-59.02;10.29;-61.3;2
-3.91;-7.64;-11.55;-64.63;19.99;-43.43;2
-4.7;-7.26;-10.86;-69.92;35.25;-29.85;2
-3.79;-7.38;-8.53;-67.1;53.12;-22.02;2
-3.46;-6.1;-6.71;-53.2;80.13;-10.01;2
-2.69;-5.21;-6.25;-39.91;113.15;-3.02;2
-0.8;-5.02;-6.07;-30.8;134.07;9.66;2
1.61;-5.03;-5.13;-40.63;88.52;18.75;2
5.39;-9.74;-7;-66.98;-16.02;9.73;2
9.14;-19.55;-8.26;-62.23;-19.33;-17.34;2
3.74;-19.55;-9.29;4.6;57.25;-10.01;2
1.77;-13.32;-14.21;63.72;62.62;-4.35;2
2.45;-8.22;-18.36;69.51;91.08;-2.4;2
2.76;-7.19;-18.45;45.42;93.46;-0.87;2
3.54;-6.04;-17.77;1.99;53.72;-18.39;2
3.49;-5.33;-16.7;-45.42;21.34;-41.56;2
2.73;-7.79;-15.71;-76.21;14.9;-61.31;2
2.76;-9.74;-14.44;-80.32;15.99;-74.74;2
2.93;-13.36;-14.52;-70.14;4.71;-95.06;2
3.35;-18.09;-15.6;-59.76;-16.97;-119.28;2
2.88;-19.55;-15.49;-57.36;-37.63;-137.62;2
0.46;-19.55;-14.42;-55.99;-47.99;-142.07;2
-0.09;-16.06;-12.95;-58.53;-41.59;-131.47;2
2.09;-14.36;-13.7;-65.08;-31.2;-115.27;2
3.11;-14.58;-14.53;-82.15;-16.91;-109.69;2
3.69;-15.28;-14.18;-104.21;-3.14;-113.14;2
3.52;-16.36;-12.69;-122.8;15.24;-116.75;2
1.57;-17.55;-10.41;-128.06;23.2;-121.45;2
-1.82;-18.01;-8.18;-114.22;22.01;-117.47;2
-4.76;-16.51;-6.7;-86.9;44.23;-98.03;2
-6.03;-13.94;-5.13;-60.05;71.23;-74.52;2
-5.89;-11.27;-3.06;-34.11;92.99;-54.91;2
-6.61;-9.39;-3.78;2.27;116.12;-39.04;2
-8.78;-6.98;-7.09;28.97;125.26;-20.88;2
-9.85;-4.9;-8.88;40.64;105.77;-7.75;2
-11.2;-3.16;-9.5;42.11;65.05;5.47;2
-11.81;-2.13;-9.32;41.11;19.33;19.45;2
-11.65;-2.19;-8.99;42.38;-7.81;34.47;2
-10.3;-2.78;-8.47;46.91;-12.43;51.34;2
-8.66;-2.75;-8.32;50.44;-12.72;75.15;2
-5.45;-3.67;-7.89;45.69;-10.2;93.69;2
-2.42;-4.48;-6.35;38.26;-16.63;108.72;2
0.41;-4.78;-5.81;56.53;-49.2;107.46;2
1.38;-4.42;-7.83;90.85;-85.15;97.93;2
1.29;-4.47;-9.81;112.06;-108.89;91.32;2
0.27;-5.6;-11.66;115.99;-98.8;90.82;2
-1.47;-7.87;-12.73;104.44;-78.25;96.89;2
-4.05;-11.76;-13.42;83.17;-65.2;112.76;2
-8.01;-19.55;-13.63;46.6;-95.65;132.28;2
-1.39;-19.55;-12.93;3.96;-90.36;132.75;2
1.61;-19.55;-5.7;78.99;-86.29;147.25;2
3.79;-19.55;-10.84;127.43;-83.16;157.5;2
6.52;-19.55;-14.51;121.72;-72.37;134.67;2
5.98;-19.55;-13.65;103.2;-69.66;98.12;2
3.53;-18.45;-12.29;93.05;-56.57;95.35;2
2.37;-18.09;-11.74;85.24;-31.94;108.86;2
2.14;-17.73;-11.9;76.48;-13.44;108.92;2
1.96;-17.28;-12.42;70.45;1.13;96.75;2
1.66;-16.31;-12.73;57.87;4.32;80.83;2
1.37;-15.23;-12.6;40.48;1.84;66.05;2
1.2;-13.74;-11.86;23.81;-1.57;56.77;2
1.44;-11.7;-11.18;14.08;-8.62;50.44;2
2.2;-9.69;-11.17;9.21;-20.11;41.48;2
3.02;-7.91;-11.86;2.64;-32.67;28.74;2
4.03;-6.07;-12.79;-6.14;-39.74;13.2;2
4.42;-4.28;-13.46;-14.18;-45.58;-6.43;2
4.32;-3.07;-13.67;-21.76;-42.75;-25.13;2
3.84;-2.22;-13.28;-27.79;-32.16;-42.28;2
3.99;-2.03;-13.17;-35.28;-18.54;-54.28;2
4.79;-1.77;-12.7;-46.05;-1.42;-64.93;2
3.88;-2.11;-11.85;-59.74;16.29;-70.75;2
1.93;-3.58;-10.9;-69.36;24.67;-67.03;2
0.36;-4.1;-9.06;-67.28;25.74;-70.54;2
-1.23;-4.78;-7.8;-56.17;19.44;-65.7;2
-1.71;-5.38;-7.38;-39.74;9.64;-59.11;2
-1.74;-5.47;-7.92;-27.47;2.66;-53.89;2
-1.56;-5.22;-9.64;-24.09;5.32;-47.95;2
-1.17;-4.77;-10.69;-30.16;18.87;-40.97;2
-1.53;-4.27;-10.78;-41.28;46.34;-30.18;2
-1.55;-4.97;-9.94;-52.14;83.84;-18.23;2
-0.74;-4.62;-8.31;-55.93;136.61;-3.53;2
0.42;-5.12;-7.46;-44.31;194.86;12.19;2
1.39;-5.89;-6.28;-16.27;237.31;29.3;2
3.29;-4.16;-9.02;4.26;171.32;31.16;2
6.71;-3.82;-12.94;-2.08;69.45;10.07;2
10.55;-5.48;-14.32;-32.64;50.11;-16.73;2
11.79;-11.83;-18.53;-44.52;97.42;-65.15;2
9.76;-19.55;-20.27;-37.75;60.59;-125.08;2
3.69;-19.55;-19.17;-29.44;-27.16;-174.33;2
-3.84;-19.55;-15.17;-48.25;-143.62;-169.61;2
-11.94;-19.55;-10.08;-73.19;-142.25;-118.77;2
-8.88;-15.2;-5.78;-55.11;-29.88;-54.46;2
0.83;-12.48;-9.98;-43.02;-4.36;-32.79;2
5.45;-13.67;-15.62;-27.79;-6.93;-29.43;2
8.09;-15.29;-18.56;-19.68;-4.07;-51.31;2
8.93;-15.63;-19.42;-29.53;10.5;-89.21;2
7.57;-14.67;-18.15;-53.51;18.11;-114.3;2
5.49;-14.73;-16.04;-93.19;15.99;-120.4;2
2.34;-15.58;-12.86;-128.6;23.3;-117.66;2
-0.31;-16.83;-8.82;-133.32;50.45;-109.39;2
-1.34;-16.3;-6.88;-104.3;59.42;-101;2
-2.67;-14.88;-7.4;-67.11;56.26;-91.79;2
-3.88;-13.24;-8.73;-44.6;45.78;-74.96;2
-4.22;-11.23;-9.33;-38.26;44.25;-56.51;2
-5.45;-10.44;-9.09;-33.63;47.12;-47.04;2
-8.4;-9.93;-8.54;-17.87;64.09;-40.85;2
-10.95;-8.57;-7.4;3.24;72.44;-27.21;2
-12.96;-6.59;-6.5;21.72;66.83;-5.62;2
-13.02;-4.88;-6.41;35.05;52.81;16.65;2
-11.71;-3.5;-7.26;37.34;28.82;37.5;2
-9.66;-3.08;-8.22;34.11;-0.68;57.69;2
-7.21;-2.77;-8.75;36.6;-34.13;73.69;2
-4.65;-2.5;-9.31;33.19;-58.95;84.12;2
-2.02;-2.99;-8.78;29.83;-64.06;95.37;2
0.34;-3.84;-7.76;29.89;-63.53;103.03;2
1.49;-5.3;-7.11;57.51;-65.68;96.1;2
1.41;-5.44;-8.6;92.4;-61.67;81.67;2
0.98;-5.03;-9.82;106.25;-57.61;71;2
-0.06;-5.93;-10.66;100.3;-54.12;72.05;2
-0.85;-8.1;-11.78;85.47;-43.28;87.63;2
-1.96;-11.95;-12.88;71.39;-41.27;108.85;2
-3.54;-19.55;-12.88;58.5;-90.06;119.61;2
0.52;-19.55;-13.73;49.69;-115.46;120.16;2
4.07;-19.55;-10.45;85.15;-102.68;135.51;2
5.71;-19.13;-12.48;118.14;-86.66;130.12;2
5.46;-18.53;-13.85;119.55;-81.92;99.29;2
2.85;-18.04;-13.04;106.24;-92.71;81.42;2
1.86;-18.56;-12.1;93.76;-68.29;88.66;2
1.22;-19.5;-11.05;80.89;-41.69;96.37;2
1.17;-19.55;-11.13;74.14;-4.94;96.39;2
1.61;-18.83;-11.89;66.98;20.67;88.76;2
0.49;-17.05;-11.6;57.45;16.47;79.4;2
0.64;-14.88;-11.13;49.79;2.99;71.17;2
0.87;-13.03;-10.79;44.58;-16.75;64;2
1.49;-11.36;-11.14;36.88;-34.96;59.94;2
2.66;-9.98;-12.23;23.41;-44.59;51.14;2
3.53;-8.69;-13.29;6.92;-50.67;37.88;2
3.76;-7.52;-13.84;-9.39;-56.35;23.85;2
3.93;-6.33;-13.93;-22.95;-58.39;9.48;2
3.93;-5.37;-13.49;-32.91;-53.45;-3.54;2
3.99;-4.37;-12.88;-39.25;-44.97;-18.66;2
4.69;-3.37;-12.05;-41.4;-25.42;-33.56;2
4.79;-2.68;-11.07;-41.67;3.21;-46.94;2
4.17;-2.38;-9.91;-40.47;31.29;-59.82;2
2.28;-2.53;-8.96;-37.2;53.55;-64.44;2
0.49;-2.98;-8.52;-39.64;58.84;-66.44;2
-1.54;-3.85;-7.66;-43.37;43.62;-64.56;2
-3.07;-4.61;-7.23;-38.23;22.65;-53.75;2
-3.92;-5.2;-7.6;-22.87;13.35;-40.08;2
-2.98;-4.42;-9.23;-10.53;5.96;-33.42;2
-2.12;-3.84;-10.87;-16.24;6.62;-28.54;2
-1.49;-3.76;-11.78;-30.93;25.98;-22.63;2
-1.74;-4.22;-11.17;-38.53;53.7;-18.8;2
-1.78;-4.25;-9.54;-37.62;77.59;-12.88;2
-1.75;-4.09;-8.45;-36.96;92.91;-7.28;2
-0.3;-4.84;-8.53;-31.07;123.66;0.31;2
1.06;-5.66;-8.27;-14.82;165.32;13.22;2
3.21;-5.39;-7.18;-0.38;128.61;19.37;2
6.24;-4.36;-6.84;-19.18;21.7;3.83;2
5.22;-8.34;-12.33;0.39;36.8;-36.63;2
2.64;-16.11;-16.95;18.95;65.8;-62.71;2
0.59;-19.55;-22.48;33.95;-42.33;-79.14;2
-2.07;-19.55;-22.54;10.48;-95.57;-83.87;2
-5.35;-11.81;-17.47;-3.46;-27.81;-55.33;2
-3.03;-5.45;-13.45;-40.37;17.61;-4.01;2
3.76;-8.63;-14.85;-107.88;61.04;13.89;2
8.45;-13.34;-14.51;-155.49;69.65;-8.97;2
12.97;-16.63;-10.3;-145.48;18.12;-59.17;2
12.14;-19.39;-8.38;-64.55;-13.42;-121.66;2
6.08;-19.55;-12.17;0.62;-10.49;-153.3;2
2.64;-19.47;-15.74;-0.27;-15.1;-153.55;2
0.53;-17.98;-16.89;-35.34;-10.43;-139.24;2
-0.51;-15.42;-16.17;-73.54;18.93;-120.27;2
-0.34;-14.76;-14.43;-103.95;43.29;-103.27;2
-0.55;-15.96;-12.19;-118.29;42.54;-98.06;2
-1.73;-17.62;-9.27;-109.75;45.09;-91.48;2
-2.91;-16.33;-6.68;-79.04;47.12;-82.17;2
-3.46;-13.19;-6.57;-46.79;43.52;-75.23;2
-4.06;-11;-7.95;-30.25;44.45;-66.64;2
-5.2;-9.53;-9.03;-27.53;44.51;-56.25;2
-7.03;-8.6;-8.69;-28.7;45.93;-46.4;2
-9.39;-7.91;-7.05;-16.47;56.54;-30.01;2
-10.53;-7.03;-6.7;10.97;61.4;-7.77;2
-10.83;-5.44;-7.52;31.04;51.38;8.68;2
-10.73;-3.75;-8.14;38.34;23.33;18.77;2
-10.22;-2.18;-8.48;38.65;-14.9;31.57;2
-8.89;-1.35;-8.27;34.36;-37.79;52.1;2
-6.1;-2.28;-7.79;28.14;-44.65;74.6;2
-2.64;-3.68;-7.74;34.35;-51.6;84.78;2
-1.32;-4.25;-8.06;54.37;-52.33;81.33;2
-1.14;-4.57;-8.49;71.28;-39.79;82.28;2
-0.81;-4.85;-9.14;78.21;-24.75;85.54;2
-0.55;-5.48;-9;80.92;-31.38;91.47;2
-0.37;-7.78;-9.39;84.37;-42.62;101.33;2
-1.33;-10.67;-9.68;86.66;-61.32;113.67;2
-3.28;-14.69;-9.99;90.28;-91.81;131.04;2
-3.61;-19.55;-11.44;89.99;-135.62;139.49;2
2.17;-19.55;-11.7;90.18;-116.59;135.34;2
3.5;-18.71;-10.74;123.4;-90.43;142.41;2
4.88;-19.16;-12.67;128.49;-73.59;140.01;2
6.06;-19.54;-13.68;117.12;-54.22;128.28;2
4.99;-19.55;-13.48;105.47;-25.75;106.57;2
3.28;-18.54;-12.22;97.49;-5.98;100.34;2
1.4;-17.75;-11.69;90.37;10.13;110.76;2
1.78;-16.62;-11.43;80.95;28.64;111.41;2
0.98;-15.65;-11.09;76.58;31.1;102.58;2
0.75;-14.82;-11.37;70.88;18.92;92.42;2
0.74;-13.64;-11.82;60.89;4.48;77;2
0.37;-12.26;-12.05;48.79;-9.96;68.3;2
1.4;-10.02;-12.17;35.41;-18.23;60.72;2
2.24;-8.09;-12.68;20.51;-31;46.74;2
2.65;-6.52;-13.29;1.45;-44.91;29.22;2
2.87;-5.31;-13.94;-18.16;-50.19;13.43;2
2.51;-4.01;-13.74;-35.71;-53.3;-2.47;2
1.54;-3.21;-12.91;-50.02;-56.62;-22.4;2
1.36;-2.65;-11.78;-56.87;-51.49;-37.71;2
1.88;-2.43;-11.25;-59.11;-28.71;-48.75;2
1.63;-2.87;-11.31;-63.92;3.9;-54.42;2
1.09;-3.3;-11.14;-72.12;27.45;-56.16;2
-0.26;-4.01;-10.2;-81.5;30.7;-52.98;2
-1.15;-5.37;-7.68;-78.81;15.9;-46.45;2
-2.07;-6.8;-5.88;-62.68;-1.34;-35.79;2
-2.8;-7.27;-5.97;-41.5;-9.29;-27.59;2
-3;-6.65;-8.75;-26.39;-0.7;-24.73;2
-3.09;-6.16;-11.12;-19.67;18.35;-17.55;2
-1.86;-4.55;-11.8;-21.82;38.7;-10.24;2
-0.35;-3.89;-10.67;-25.98;73.73;3.23;2
2.13;-2.45;-8.48;-31.06;121.43;14.2;2
4.4;-2.59;-4.26;-34.93;140.09;18.96;2
7.84;-2.07;-0.28;-27.66;42.39;1.7;2
6.36;-4.35;-7.41;6.03;3.69;-25.81;2
2.71;-7.03;-12.98;9.4;65.87;-36.25;2
-0.38;-12.09;-18.56;-11.79;62.45;-29.27;2
0.14;-19.55;-23.29;-13.7;21.32;-41.9;2
0.88;-19.55;-19.12;-33.06;60.23;-38.01;2
0.59;-12.82;-12;-48.82;60.36;-12.72;2
3.07;-8.73;-9.41;-55.82;42.61;-17.45;2
3.37;-9.88;-9.29;-41.73;35.02;-42.79;2
1.94;-12.13;-12.16;-21.37;15.81;-69.88;2
0.83;-12.88;-14.67;-8.5;-11.38;-88.3;2
0.89;-13.76;-16.94;-10.24;-22.19;-102.85;2
0.33;-15.34;-17.88;-19.2;-39.65;-110.92;2
-0.22;-16.17;-17.6;-44.46;-48.81;-110.02;2
-0.85;-15.99;-17.02;-76.09;-40.68;-104.3;2
-1.43;-15.55;-15.39;-105.63;-27.42;-94.85;2
-0.28;-15.18;-12.95;-120.71;-14.39;-84.75;2
2.24;-15.54;-10.23;-114.36;-5.74;-86.82;2
3.64;-16.11;-8.76;-88.52;7.78;-96.2;2
2.53;-17.01;-8.65;-68.66;20.68;-108.53;2
0.11;-17.67;-9.94;-62.09;46.53;-107.53;2
-1.82;-15.48;-10.41;-65.46;71.57;-97.24;2
-3.82;-13.55;-10.26;-66.02;85.19;-78.99;2
-5.51;-12.69;-9.8;-63.43;88.59;-59.14;2
-6.45;-12.01;-8.24;-54.72;83.34;-45.75;2
-7.56;-10.58;-6.12;-25.7;81.94;-40.44;2
-9.44;-8.66;-5.51;14.6;74.78;-36.33;2
-11.29;-6.23;-6.39;41.27;57.74;-23.72;2
-11.98;-3.82;-7.56;49.87;38.33;-8.75;2
-11.75;-1.68;-8.22;48.18;9.16;8.79;2
-10.73;-0.6;-8.51;44.52;-14.87;31.44;2
-8.37;-0.29;-8.42;42.02;-22.1;49.74;2
-6.67;-0.48;-8.39;37.43;-27.13;73.54;2
-4.12;-2.56;-8.78;35.52;-38.39;91.02;2
-2.03;-4.61;-8.35;43.05;-48.31;97.85;2
-1.28;-6.38;-7;62.79;-48.28;95.35;2
-1.7;-7.08;-5.32;87.89;-54.55;96.41;2
-1.89;-8.88;-6.41;105.25;-65.51;100.55;2
-1.87;-11.11;-8.03;109.35;-84.67;104.4;2
-2.3;-15.29;-9.96;109.72;-113.52;115.74;2
-0.18;-19.55;-12.97;99.02;-124.07;119.97;2
2.7;-19.55;-13.88;96.98;-94.97;117.63;2
3.54;-17.34;-12.59;111.44;-81.84;128.21;2
4.29;-17.11;-12.97;111.59;-63.91;137.66;2
4.61;-18.65;-12.62;106.98;-34.71;129.83;2
4.25;-18.38;-11.59;105.02;-0.3;107.85;2
1.24;-17.8;-10.18;106.56;1.25;97.77;2
0.09;-17.78;-10.25;105.94;16.8;105.08;2
-0.2;-17.68;-11.03;95.16;26.69;105.8;2
0.01;-16.65;-11.76;82.48;38.51;102.77;2
-0.22;-16.08;-12.24;68.45;47.9;94.47;2
-1.15;-14.49;-11.48;55.82;28.8;82.5;2
-0.85;-12.93;-10.96;47.51;10.22;73.55;2
-0.53;-11.36;-10.2;39.56;-15.75;64.37;2
-0.28;-10.26;-10.55;30.37;-39.93;56.14;2
0.49;-8.88;-11.4;18.81;-55.87;44.5;2
0.8;-7.81;-12.11;5.77;-71.28;28.69;2
1.21;-6.54;-12.38;-6.41;-80.91;13.14;2
1.16;-5.07;-11.87;-16.13;-87.94;-2.01;2
0.9;-3.99;-11.32;-23.34;-92.87;-17.27;2
1.75;-3.01;-11.11;-27.66;-84.21;-31.89;2
2.15;-2.18;-10.88;-29.22;-61.26;-43.79;2
2.49;-1.85;-10.89;-28.75;-22.77;-52.82;2
2.17;-2.21;-11.44;-30.63;24.34;-56.81;2
1.11;-2.53;-11.27;-38.82;62.86;-54.67;2
-0.2;-3.48;-10.69;-49.21;78.24;-50.54;2
-1.43;-4.13;-9.62;-58.09;70.48;-43.01;2
-2.07;-4.55;-8.75;-58.36;52.67;-35.74;2
-2.7;-4.23;-9.5;-56.92;39.63;-33.98;2
-3.35;-4.85;-10.43;-55.1;34.8;-27.95;2
-2.63;-4.79;-11.35;-53.44;36.26;-24.53;2
-2.09;-4.47;-11.35;-46.91;42.07;-15.24;2
-0.56;-3.7;-10.92;-39.53;45.16;-8.6;2
1.8;-2.95;-9.2;-45.39;37.37;-4.99;2
4.1;-2.83;-3.46;-57.22;7.8;-10.08;2
3.59;-5.77;2.61;-22.21;-22.9;-22.1;2
1.54;-6.78;-9.36;11.88;29.35;-28.83;2
-0.49;-7.76;-15.17;1.98;28.82;-28.11;2
-0.29;-13.79;-18.86;-13.8;3.49;-27.68;2
3.21;-19.55;-20.81;-42.17;0.83;-36.92;2
2.96;-19.55;-18.31;-72.87;19.06;-35.02;2
0.46;-10.93;-11.41;-84.49;62.29;-12.1;2
2.77;-9.44;-6.15;-78.7;55.99;-4.28;2
6.23;-12.62;-6.33;-39.7;39.26;-38.42;2
4.85;-14.11;-11.08;-8.27;26.25;-76.88;2
3.02;-14.54;-15.45;-5.8;9.08;-98.23;2
2.12;-14.97;-17.69;-18.95;0.67;-112.02;2
0.62;-16.59;-19.13;-39.88;-8.59;-118.43;2
-1.25;-18.35;-19.42;-76.88;-23.5;-122.75;2
-3.82;-19.09;-17.66;-110.02;-24.36;-112.56;2
-3.06;-17.93;-12.93;-119.75;4.7;-94.15;2
-0.25;-16.45;-8.54;-90.3;8.09;-91.58;2
1.09;-15.59;-9.24;-55.39;-0.57;-99.25;2
2.16;-14.8;-11.63;-48.98;25.01;-103.98;2
1.43;-15.02;-12.01;-67.82;50.93;-102.33;2
0.09;-15.3;-10.86;-85.6;78.4;-97.39;2
-1.79;-15.28;-8.54;-84.98;94.77;-90.73;2
-3.34;-12.8;-6.88;-65.18;107.96;-80.87;2
-4.81;-11.46;-6.94;-41.97;95.96;-75.41;2
-6.4;-10.39;-7.39;-22.28;81.47;-69.45;2
-8.15;-9.16;-8.19;-5.12;69.64;-63.66;2
-9.39;-7.51;-8.93;8.17;55.49;-58.99;2
-10.49;-5.4;-8.97;11.06;42.52;-44.18;2
-10.57;-3.67;-9.01;7.33;32.5;-26.29;2
-10.46;-2.26;-8.79;4.33;15.45;-11.76;2
-9.74;-0.83;-8.2;3.49;-7.19;0.13;2
-8.6;-0.55;-7.99;7.9;-27.62;9.76;2
-7.72;-0.48;-7.27;15.02;-46.36;34.43;2
-5.77;-0.74;-7.06;22.98;-53.33;60.95;2
-3.01;-2.11;-6.82;24.7;-48.89;79.73;2
-1.26;-4.35;-6.53;34.08;-46.27;87.99;2
-0.21;-5.75;-6.14;61.51;-54.11;90.87;2
-0.29;-7.55;-7.65;86.35;-59.04;89.51;2
-1.67;-9.3;-8.43;93.72;-60.41;94.21;2
-3.29;-13.42;-9.25;88.24;-56.94;106.02;2
-3.97;-19.55;-10.3;66.81;-75.58;109.26;2
1.41;-19.55;-11.91;65.9;-58.81;109.79;2
1.65;-18.31;-9.57;104.24;-64.81;111.25;2
1.66;-17.12;-12.48;120.77;-71.4;128.32;2
2.28;-18.24;-13.68;107.29;-64.92;134.11;2
2.98;-19.55;-13.16;97.46;-43.94;127.22;2
3.27;-19.55;-11.73;105.53;-17.17;110.41;2
0.19;-19.55;-10.71;118.34;-26.21;101.42;2
-0.46;-18.38;-11.66;117.72;-17.44;113.6;2
-0.92;-18.38;-12.12;105.9;-14;120.67;2
0.35;-17.96;-12.61;91.54;-5.24;119.93;2
1.74;-16.93;-12.73;78.58;4.17;112.42;2
1.67;-15.07;-11.89;70;1.14;98.99;2
1.55;-12.7;-11.45;64.27;-12.55;84.99;2
1.43;-10.6;-11.46;57.08;-26.1;75.65;2
1.83;-8.71;-11.75;44.52;-40.65;68.25;2
2.68;-7.11;-12.46;30.21;-54.03;57.3;2
2.88;-5.37;-12.94;15.37;-65.01;39.66;2
2.86;-3.98;-13.37;0.94;-73.07;20.49;2
2.41;-2.85;-12.86;-12.24;-75.36;0.62;2
1.65;-2.2;-12.5;-22.97;-73.81;-16.58;2
1.86;-1.53;-12.07;-31.21;-56.8;-29.14;2
3.06;-0.93;-11.31;-35.87;-21.71;-38.37;2
3.86;-1.1;-10.26;-39.32;20.1;-49.22;2
1.48;-1.77;-9.64;-47.95;49.64;-44.86;2
2.12;-2.14;-9.51;-55.2;54.22;-53.41;2
-0.05;-2.98;-8.25;-57.77;41.25;-50.34;2
-1.35;-3.62;-7.08;-45.53;18.81;-46.45;2
-2.82;-4.34;-7.21;-27.36;3.08;-42.87;2
-3.19;-4.75;-8.84;-14.95;4.22;-36.77;2
-3.36;-4.92;-10.46;-16.28;28.88;-28;2
-3.67;-4.95;-11.36;-20.37;83.67;-13.04;2
-3.37;-5.67;-10.08;-19.09;144.58;2.8;2
-1.09;-4.71;-8.15;-22.07;185.6;19.29;2
6.12;-2.32;-9.61;-32.53;124.9;26.48;2
10.33;-2.09;-10.98;-65.08;15.01;14.24;2
11.84;-3.61;-10.78;-95.88;28.2;-7.4;2
9.98;-8.76;-12.11;-69.34;40.99;-47.46;2
4.58;-17.58;-18;-22.21;71.3;-92.17;2
0.95;-19.55;-18.14;-29.33;31.51;-123.4;2
-4.18;-19.55;-12.6;-66.28;4.49;-122.41;2
-10.07;-16.72;-4.89;-29.81;34.87;-50.53;2
-3;-12.13;-7.52;-2.65;14.06;-30.33;2
1.51;-11.27;-12.51;-7.99;-5.09;-39.86;2
4.3;-11.87;-14.6;-17.9;-12.77;-55.45;2
5.18;-13.66;-15.85;-28.53;-10.65;-73;2
5.28;-15.43;-17.23;-42.86;3.7;-97.8;2
3.62;-16.09;-16.99;-53.16;10.75;-120.54;2
0.67;-16.21;-16.17;-61.4;18.81;-129.04;2
-1.82;-17.14;-15.93;-74.97;19.09;-124.86;2
-2.87;-17.95;-15.33;-93.15;27.48;-115.68;2
-3.02;-17.18;-12.7;-113.05;32.58;-112.66;2
-2.12;-15.58;-9.01;-114.31;46.51;-107.24;2
-1.64;-15.57;-6.53;-91.57;53.04;-100.89;2
-2.85;-15.46;-6.4;-61.89;48.19;-94.94;2
-3.24;-13.42;-6.97;-46.97;56.51;-82.19;2
-4.09;-12.03;-7.99;-44.02;55.99;-66.82;2
-4.79;-11.37;-8.27;-41.56;53.07;-54.77;2
-5.46;-10.69;-7.82;-34.69;54.16;-47.89;2
-6.49;-9.97;-7.54;-16.16;45.77;-47.13;2
-7.81;-8.48;-8.18;7.94;38.52;-48.65;2
-9.57;-6.52;-9.11;25.24;36.49;-41.79;2
-11;-4.21;-9.7;28.25;30.91;-26.33;2
-11.31;-2;-9.7;21.08;11.51;-10.33;2
-11.32;-0.34;-8.88;11.59;-16.5;6.28;2
-10.65;0.46;-7.04;7.88;-39.81;24.75;2
-8.7;0.37;-5.19;9.23;-50.6;67.29;2
-3.08;-2.8;-3.94;26.72;-80.46;96.98;2
0;-4.87;-4.51;65.78;-97.15;92.95;2
0.65;-6.22;-6.62;91.27;-72.37;95.68;2
0.74;-7.91;-7.92;104.95;-51.27;98.99;2
0.72;-10.57;-9.57;105.43;-29.89;104.41;2
-0.46;-13.65;-10.47;97.79;-24.82;112.39;2
-3.61;-19.55;-9.28;81.62;-50.63;117.41;2
0.4;-19.55;-11.63;70.27;-60.95;117.9;2
0.41;-18.19;-9.77;101.26;-43.19;128.62;2
1.35;-16.4;-11.1;119.88;-54.41;143.03;2
1;-16.1;-11.64;117.7;-71.68;158.57;2
2.6;-19;-12.15;112.68;-62.33;157.68;2
5.37;-19.55;-12.55;114.7;-21.52;135.09;2
4.62;-19.55;-11.34;127.48;-3.64;110.08;2
1.81;-17.74;-11.56;126.21;11.31;109.11;2
0.5;-16.66;-12.43;106.97;28.67;111.56;2
-0.55;-15.94;-12.81;85.13;44.87;108.32;2
-0.46;-15.46;-12.34;64.14;37.7;98.22;2
-1.37;-14.88;-11.14;50.62;17.77;85.37;2
-1.04;-13.36;-10.19;45.85;-8.72;75.44;2
0.14;-11.35;-10.62;41.24;-29.99;65.99;2
1.13;-9.22;-11.71;30.74;-53.49;53.38;2
1.99;-7.06;-12.79;17.54;-70.83;39.37;2
2.69;-5.28;-13.39;1.94;-80.52;23.89;2
3.38;-3.75;-13.6;-16.18;-82;6.75;2
2.71;-2.37;-13.12;-32.61;-84.12;-10.18;2
2.88;-1.61;-12.42;-45.1;-76.3;-23.01;2
4.02;-0.17;-11.6;-52.13;-47.35;-43.98;2
4.62;0.47;-11.81;-61.51;-2.12;-60.25;2
4.19;0.1;-12;-76.75;43.48;-73.15;2
2.58;-0.89;-11.77;-94.66;75;-82.24;2
0.29;-2.37;-10.19;-107.07;85.7;-80.09;2
-1.42;-3.78;-7.61;-97.27;67.45;-74.54;2
-4.03;-5.42;-5.79;-70.88;40.35;-60.58;2
-5.18;-6.9;-5.68;-40.44;14.21;-49.66;2
-5.84;-7.03;-7.16;-25.39;-11.59;-38.82;2
-6.21;-7.29;-8.99;-19.86;-9.78;-21.51;2
-6.37;-7.2;-10.86;-12.51;33.87;-1.13;2
-5.66;-5.6;-11.03;-17.34;68.96;23.07;2
-0.98;-2.72;-8.41;-49.88;95.71;39.79;2
6.87;-1.56;-3.97;-89.34;31.29;41.54;2
11.27;-4.38;-5.19;-63.17;-64.42;1.47;2
8.93;-7.32;-10.06;-23.06;-20.62;-22.06;2
5.07;-11.86;-15.87;2.24;36.69;-33.28;2
4.74;-18.87;-18.3;2.05;36.51;-47.65;2
4.65;-19.55;-17.17;-27.77;50.62;-64.4;2
2.07;-15.63;-11.42;-51.54;51.74;-42.38;2
1.97;-11.37;-8.03;-35.7;41.5;-39.57;2
2.51;-12.22;-10.76;-11.61;36.62;-66.5;2
0.86;-13.66;-13.73;-9.68;33.67;-81.56;2
1.86;-15.13;-16.95;-18.58;21.67;-90.53;2
2.23;-16.25;-18.48;-29.39;2.72;-105.29;2
1.22;-16.78;-18.8;-50.38;-19.93;-115.37;2
-0.98;-17.51;-18.38;-81.37;-31.46;-119.96;2
-2.69;-18.02;-16.8;-107.65;-16.01;-107.34;2
-2.44;-17.09;-13.67;-119.74;6.56;-92.28;2
0.02;-16.23;-10.32;-114.56;10.7;-90.95;2
1.4;-16.43;-8.79;-92.45;12.51;-98.46;2
0.86;-16.15;-8.44;-73.51;24.87;-105.66;2
-0.52;-15.61;-8.81;-65.02;48.35;-102.8;2
-1.98;-15.34;-8.73;-62.79;68.18;-91.72;2
-2.38;-12.81;-8.2;-59.77;87.22;-73.4;2
-2.95;-12.22;-7.48;-47.86;80.22;-62.76;2
-4.46;-11.8;-7.69;-33.88;69.69;-60.69;2
-6.43;-10.61;-7.91;-14.78;68.84;-59.31;2
-9.28;-8.95;-8.26;6.74;70.3;-54.33;2
-11.11;-6.98;-8.49;20.82;70.71;-38.35;2
-11.69;-5.01;-9.24;21.95;59.03;-21.25;2
-12.07;-3.19;-9.29;18.25;30.16;-9.49;2
-12.12;-1.65;-8.35;19.1;-2.26;3.47;2
-11.36;-0.62;-7.36;21.38;-27.26;26.45;2
-8.74;-0.19;-6.88;25.15;-40.88;55.91;2
-4.84;-1.48;-6.61;34.32;-56.46;74.82;2
-2.48;-2.86;-6.65;46.98;-72.09;86.36;2
-0.53;-5.11;-6.9;65.03;-57.88;92.17;2
-0.28;-5.76;-6.8;85.04;-43.96;91.2;2
-0.2;-7.75;-7.87;96.9;-27.93;97.47;2
-0.66;-9.9;-8.88;97.43;-15.74;102.99;2
-1.88;-13.49;-9.15;92.69;-16.01;115.95;2
-2.97;-19.55;-9.49;83.86;-35.54;129.99;2
-0.1;-19.55;-11.49;73.15;-59.78;125.03;2
1.16;-19.55;-10.3;101.86;-56.05;128.86;2
0.45;-18.9;-11.63;114.7;-65.55;152.27;2
0.75;-19.55;-13.15;100.07;-72.73;162.71;2
3.49;-19.55;-13.23;89.33;-38.23;156.31;2
2.93;-19.55;-10.31;100.29;-22.27;122.09;2
1.51;-19.4;-9.7;116.46;-16.05;113.88;2
0.56;-17.43;-10.77;114.41;-0.07;120.08;2
0.3;-15.9;-11.33;98.08;11.59;117.21;2
0.41;-15.31;-11.59;79.54;22.38;107.18;2
0.61;-14.22;-10.94;65.05;20.26;94.3;2
-0.31;-13.27;-10.15;59.91;1.41;83.46;2
0;-11.56;-10.02;56.47;-20.28;76.62;2
0.13;-9.76;-10.59;47.37;-52.7;69.33;2
1;-8.01;-11.77;36.24;-81.07;62.08;2
1.74;-6.47;-12.54;24.21;-102.44;51.69;2
2.19;-4.6;-13.1;13.25;-117.22;35.28;2
2.23;-2.51;-12.76;3.06;-122.58;13.32;2
2.49;-0.75;-12.56;-9.22;-112.76;-8.82;2
3.21;0.47;-12.89;-22.7;-80.8;-27.16;2
4.06;0.83;-13.68;-39.24;-29.26;-39.09;2
4.61;0.89;-14.02;-56.79;28.66;-47.59;2
4.05;0.12;-13.54;-74.28;69.16;-55.59;2
3.21;-0.35;-11.39;-85.7;74.9;-65.7;2
1.45;-2.24;-9.07;-84.47;54.28;-71.12;2
-0.19;-3.98;-7.16;-71.15;27.68;-69.42;2
-1.69;-5.06;-6.45;-48.9;10.85;-61.24;2
-2.42;-5.55;-7.01;-30.1;3.36;-54.08;2
-2.96;-5.7;-8.3;-18.5;11.01;-42.3;2
-3.71;-5.66;-9.69;-10.2;37.67;-26.85;2
-3.85;-5.53;-10.09;-10.22;76.64;-6.49;2
-2.55;-4.38;-6.45;-22.8;134.06;12.99;2
3.29;-2.39;-6.1;-36.43;130.38;26.27;2
8.66;-1.91;-11.26;-46.71;51.95;15.61;2
9.84;-3.39;-12.97;-65.9;56.97;0;2
9.85;-8.31;-12.22;-68.02;67.18;-25.54;2
5.57;-18.15;-15.65;-42.6;89.82;-75.3;2
1.29;-19.55;-16.38;-27.77;83.01;-107;2
-6.01;-19.55;-8.96;-34.05;52.08;-103.63;2
-9.56;-16.44;-6.23;18.57;33.98;-40.93;2
-3.8;-10.64;-11.88;37.58;-21.29;-34.61;2
-1.26;-8.58;-15.06;9.53;-27.91;-37.75;2
1.8;-10.03;-16.69;-24.87;-25.98;-41.13;2
4.44;-11.75;-16.93;-57.94;-22.84;-54.98;2
6;-13.79;-16.34;-84.66;-9.91;-78.59;2
5.2;-16.76;-15.13;-90.58;3.34;-110.5;2
2.52;-18.49;-13.8;-78.45;19.46;-128.15;2
0.11;-18.59;-13.55;-64.39;20.72;-125.16;2
0.07;-18.64;-14.44;-67.06;18.7;-121.01;2
0.28;-18;-14.36;-82.11;27.9;-123.21;2
-0.63;-16.86;-11.94;-96.66;28.64;-124.38;2
-1.24;-17.11;-9.66;-98.74;40.36;-120.09;2
-2.9;-17.43;-7.59;-84.05;46.34;-111.33;2
-4.01;-16;-6.71;-64.67;43.93;-100.21;2
-4.82;-14.18;-6.71;-51.99;45.41;-88.01;2
-6.03;-12.98;-7.32;-44.95;44.8;-76.88;2
-6.63;-12.47;-7.47;-38.19;48.29;-67.24;2
-7.94;-11.69;-7.08;-23.38;42.66;-61.25;2
-9.29;-9.68;-6.85;-5.26;36.16;-56.22;2
-10.38;-7.03;-7;10.35;34.76;-47.1;2
-11.18;-4.51;-7.76;20.65;34.03;-31.52;2
-11.6;-1.92;-8.31;26.6;18.11;-16.9;2
-11.29;-0.2;-8.73;26.97;-12.39;-7.98;2
-10.84;1.54;-8.14;26.68;-44.59;-3.11;2
-10.52;2.41;-7.21;29.11;-77.72;26.6;2
-8.64;1.11;-6.8;33.26;-91.64;73.18;2
-3.84;-1.79;-6.41;38.73;-96.39;110.28;2
-0.09;-5.46;-5.98;53.82;-80.29;121.85;2
1.07;-7.96;-6.09;87.91;-54.21;118.15;2
0.61;-9.12;-7.07;110.35;-46.03;118.98;2
-1.24;-10.42;-8.42;106.24;-49.59;119.02;2
-3.96;-15.38;-9.5;92.95;-71.2;141.16;2
-3.39;-19.55;-10.94;68.84;-111.45;161.65;2
3.41;-19.55;-12.37;73.6;-81.09;142.08;2
2.27;-18.16;-10.17;113.75;-64.93;143.12;2
1.93;-17;-11.8;119.73;-73.72;161.57;2
3.41;-19.04;-11.83;110.97;-68.5;163.57;2
5.95;-19.55;-12.31;115.21;-27.48;145.72;2
5.17;-19.55;-10.67;126.16;4.06;105.13;2
1.21;-18.46;-10.58;128.22;8.65;100.02;2
-0.65;-17.27;-11.62;113.35;33.99;107.98;2
-0.92;-15.96;-11.85;92.52;50.24;108.76;2
-0.82;-15.72;-11.37;73.22;44.35;99.57;2
-1.22;-14.89;-10.36;59.37;18.66;87.36;2
-1.14;-13.14;-9.99;54.37;-7.23;78.79;2
0.23;-10.87;-10.62;47.59;-28.23;68.34;2
1.33;-8.37;-11.75;34.66;-50.09;52.41;2
1.91;-7.01;-12.74;19.89;-67.8;36.96;2
2.75;-6.16;-13.33;5.11;-78.55;20.24;2
3.16;-5.47;-13.23;-8.62;-82.71;4;2
2.57;-4.23;-12.96;-20.34;-85.83;-12.67;2
2.96;-2.88;-12.5;-30.17;-70.48;-18.9;2
5.03;-1.07;-11.38;-36.65;-33.77;-35.04;2
5.44;0.31;-10.28;-41.27;15.94;-48.24;2
4.35;0.06;-10.48;-49.82;64.25;-59.12;2
2.28;-0.81;-11.06;-69.18;96.22;-68.03;2
-0.6;-2;-10.38;-90.57;102.89;-67.08;2
-3;-3.84;-8.22;-88.08;88.16;-58.28;2
-4.34;-4.62;-7.62;-62.62;73.35;-53.19;2
-5.97;-5.21;-9.66;-37.15;50.18;-41.37;2
-5.88;-4.63;-11.69;-30.21;26.11;-26.44;2
-3.55;-3.76;-12.54;-33.68;13.31;-16.19;2
-0.25;-2.97;-11.12;-43.33;11.81;-9.43;2
3.3;-2.78;-7.02;-58.89;11.38;-8.88;2
6.03;-5.09;4.31;-38.08;3.83;-26.09;2
2.64;-7.38;-3.07;30.34;15.38;-40.82;2
-0.29;-6.71;-13.21;38.86;23.77;-49.12;2
-2.11;-8.67;-17.52;-3.89;-6.92;-42.71;2
-1.47;-16.74;-18.51;-40.93;-30.1;-41.84;2
1.28;-19.55;-18;-78.66;-33.82;-42.19;2
1.74;-19.55;-13.83;-89.62;-3.89;-26.59;2
2.44;-10.45;-8.93;-78.44;8.03;-7.4;2
5.95;-9.86;-7.39;-54.09;6.09;-21.34;2
6.33;-11.96;-9.97;-22.99;7.74;-57.32;2
3.74;-12.37;-13.26;-15.36;9.69;-82.35;2
2.06;-13.81;-15.79;-29.42;6.11;-96.52;2
0.97;-15.2;-16.72;-51.23;-1.87;-103.75;2
0.25;-15.53;-16.37;-72.87;-15.22;-106.29;2
-0.39;-16.24;-15.01;-93.54;-19.83;-108.79;2
0.02;-17.2;-13.97;-98.66;-13.3;-107.34;2
0.39;-18.21;-12.53;-89.92;-5.49;-105.5;2
1.23;-17.65;-12.07;-81.57;12.78;-105.3;2
2.12;-16.26;-12.4;-82.25;48.93;-102.95;2
1.67;-16.04;-12.25;-94.91;67.9;-107.75;2
0.52;-16.35;-11.1;-103.82;85.79;-111.24;2
-1.57;-15.82;-8.58;-97.08;110.26;-104.99;2
-4.97;-16.03;-6.66;-79.2;92.07;-98.23;2
-6.45;-13.84;-6.03;-60.56;85.87;-85.24;2
-7.4;-11.48;-5.09;-39.7;81.6;-73.74;2
-7.85;-10.27;-5.1;-17.1;77.91;-65.29;2
-8.07;-8.46;-4.81;2.75;73.81;-55.66;2
-8.37;-6.51;-5.15;21.21;70.55;-45.93;2
-9.59;-4.47;-6.11;36.24;67.59;-32.85;2
-10.08;-2.54;-7.01;46;55.6;-17.54;2
-9.38;-0.66;-7.81;50.66;31.35;-7.24;2
-9.13;0.29;-7.75;52.4;3.03;3.27;2
-8.64;0.88;-8.14;56.27;-18.42;16.57;2
-7.93;0.67;-8.78;62.07;-35.66;33.35;2
-7.09;-0.96;-9.41;63.36;-52.75;58.08;2
-6.56;-3.08;-9.67;57.5;-71.46;88.08;2
-5.2;-6.53;-10.33;49.63;-79.65;116.34;2
-5.13;-9.74;-10.21;45.48;-90.13;134.43;2
-6.58;-14.82;-10.05;52.88;-107.59;144.82;2
-8.02;-19.55;-9.39;47.92;-149.04;138.41;2
-2.87;-19.55;-10.92;61.83;-137.31;144.13;2
2.22;-19.55;-9.44;100.28;-115.19;142.62;2
4.03;-18.8;-9.52;124.05;-128.78;155.6;2
5.6;-18.71;-11;123.11;-126.42;167.05;2
5.03;-19.55;-11.35;121.28;-92.71;171.69;2
7.42;-19.55;-12.56;123.69;-11.7;153.48;2
4.8;-19.33;-10.27;126.12;19.34;116.84;2
1.12;-16.95;-9.64;123.91;11.04;116.11;2
0.74;-16.5;-9.54;114.04;17.9;127.25;2
1.85;-16.21;-9.09;103.85;22.83;124.48;2
1.34;-15.19;-9.05;95.37;12.47;113.21;2
0.61;-14.54;-9.96;86.53;14.12;108.06;2
-0.18;-13.58;-10.37;77.28;0.89;107.83;2
0.59;-12.9;-10.55;70.35;-14.58;104.38;2
1.57;-11.47;-10.99;64.25;-29.9;93.9;2
2.18;-9.47;-11.62;56.02;-47.65;78.79;2
2.97;-7.41;-12.3;46.15;-58.68;62.27;2
2.71;-5.82;-12.64;31.27;-64.43;40.63;2
1.93;-4.38;-12.56;12.76;-66.71;21.18;2
0.49;-3.29;-11.97;-5.43;-73.06;2.4;2
0.16;-2.3;-11.69;-25.34;-67.2;-10.16;2
0.41;-1.68;-11.51;-41.24;-47.52;-22.6;2
1.67;-1.2;-11.73;-52.02;-11.05;-36.71;2
2.53;-1.23;-12.11;-64.6;28.25;-52.01;2
2.79;-1.73;-11.89;-77.16;51.89;-66.66;2
1.98;-2.85;-11.07;-84.24;58.37;-76.14;2
0.86;-4.13;-9.8;-81.53;54.12;-76.53;2
-0.01;-5.41;-8.42;-67.58;50.66;-70.51;2
-1.17;-6.05;-7.62;-49.34;53.52;-62.4;2
-2.11;-6.29;-7.88;-30.96;67.09;-47.86;2
-2.38;-5.71;-9.06;-16.77;95.28;-27.87;2
-0.69;-3.58;-9.35;-19.14;119.25;-11.57;2
2.87;-2.24;-6.89;-36.57;123.08;-9.78;2
6.33;-2.49;-2.23;-26.63;84.93;-16.62;2
6.17;-2.34;-9.71;-9.87;52.21;-34.82;2
4.87;-1.31;-15.61;-28.28;66.61;-45.84;2
1.99;-5.02;-17.27;-52.05;75.45;-61.05;2
-1.26;-13.39;-17.69;-57.61;74.31;-78.92;2
-1.73;-19.55;-18.55;-76.13;41.1;-92.21;2
-4.05;-19.55;-12.47;-101.66;47.9;-78.53;2
-8.05;-19.39;-0.27;-36.79;69.82;-21.46;2
-2.08;-10.09;-5.37;36.5;-3.13;-10.63;2
0.71;-8.27;-13.49;19.33;-13.14;-23.71;2
1.81;-8.7;-16.03;-21.97;-3.92;-38.87;2
3.12;-10.65;-16.08;-47.86;-3.09;-56.46;2
3.6;-12.76;-15.39;-61.76;6.12;-77.92;2
3.21;-14.97;-15.24;-70.07;16.56;-103.89;2
0.61;-16.16;-13.97;-73.93;6.59;-125.45;2
-0.94;-16.34;-13.32;-70.27;5.18;-128.72;2
-1.59;-17.48;-13.32;-72.99;-4.04;-127.92;2
-2.18;-18.04;-13.12;-77.2;-13.33;-121.78;2
-2.45;-17.2;-12.04;-82.34;-15.35;-114.12;2
-1.5;-15.33;-11.17;-87.79;8.07;-102.08;2
-1.21;-15.06;-10.01;-94.94;24.46;-91.35;2
-1.01;-15.47;-7.85;-93.11;42.08;-83.28;2
-2.13;-15.75;-6.17;-74.71;60.29;-83.86;2
-4.36;-13.94;-6.23;-56.8;57.02;-83.14;2
-6.49;-12.33;-6.43;-49.31;52.96;-77.6;2
-9.03;-11.07;-5.38;-40.71;58.03;-66.65;2
-11;-9.18;-4.1;-22.08;64.48;-50.81;2
-12.04;-6.95;-4.29;1.98;59.32;-31.52;2
-12.76;-4.28;-4.62;19.82;44.48;-15.33;2
-12.89;-1.99;-5.01;30.32;16.01;-6.26;2
-12.53;0.59;-5.3;36.39;-22.4;18.66;2
-10.42;1.91;-5.71;41.86;-41.37;50.26;2
-7.44;1.25;-6.16;49.16;-49.33;82.31;2
-3.32;-1.51;-6.17;61.63;-77.65;99.94;2
1;-5.85;-8.46;83.48;-61.2;98.24;2
0.75;-6.53;-8.14;99.42;-29.36;83.1;2
-1.82;-6.2;-6.7;97.94;-50.99;86.37;2
-2.98;-8.78;-8.26;99.89;-71.4;102.65;2
-4.07;-12.93;-9.37;103.96;-102.59;121.25;2
-6.5;-19.55;-10.47;94.76;-152.11;138.53;2
0.54;-19.55;-15.5;88.44;-124.78;141.12;2
0.98;-19.55;-11.14;115.64;-93.1;128.05;2
1.68;-18.76;-12.75;125.43;-87.01;148.45;2
3.88;-19.55;-13.3;120.77;-54.18;150.02;2
4.61;-19.55;-11.47;123.21;-12.33;116.9;2
2.35;-18.38;-9.85;130.08;-3.03;108.69;2
0.22;-17.01;-10.16;128.44;8.79;114.04;2
-1.18;-15.87;-10.57;115;19.26;121.42;2
-0.46;-15.6;-10.89;100.04;33;122.16;2
-0.04;-14.83;-10.51;84.51;34.18;113.25;2
-0.31;-13.13;-9.78;70.11;22.36;103.26;2
0.27;-11.36;-9.75;56.98;1.32;92.18;2
0.47;-8.65;-10.25;43.5;-23.78;78.59;2
0.69;-6.96;-11.37;26.12;-47.95;62.96;2
0.94;-6.69;-12.2;4.85;-67.4;42.99;2
0.97;-6.37;-12.47;-12.95;-81.94;23.83;2
1.48;-5.57;-12.38;-23.67;-87.7;5.68;2
1.93;-4.45;-11.92;-30.76;-87.03;-13.02;2
2.55;-3.05;-11.89;-39.05;-80.1;-33.16;2
3.07;-1.58;-11.54;-51.18;-41.92;-35.9;2
6.29;-0.06;-11.82;-63.69;15.56;-53.37;2
6.87;0.71;-10.79;-71.98;71.46;-73.14;2
4.66;-0.17;-9.77;-77.41;107.83;-85.58;2
2.4;-1.35;-9.33;-85.13;119.77;-96.02;2
-0.31;-2.27;-7.47;-83.92;112.55;-98.39;2
-3.6;-4.17;-6.53;-66.87;98.67;-84.16;2
-5.05;-6.1;-5.48;-33.1;82.15;-60.48;2
-7.34;-7.21;-6.66;0.88;72.25;-26.82;2
-7.37;-6.04;-11.54;1.35;67.7;8.7;2
-3.63;-3.32;-12.91;-19.04;84.41;38.08;2
1.97;-2.24;-10.83;-46.3;91.24;46.99;2
6.83;-2.82;-2.39;-52.34;87.05;27.36;2
4.19;-4.79;-6.11;-10.42;69.3;-4.92;2
0.29;-6.96;-13.25;15.91;68.43;-21.72;2
-3.04;-13.07;-16.59;3.44;21.16;-30.07;2
-3.37;-19.55;-16.66;-31.32;-35.41;-39.64;2
-3.58;-19.55;-13.94;-66.84;-18.39;-45.28;2
-0.84;-18.01;-8.69;-35.36;-0.13;-9.01;2
3.06;-9.92;-9.87;9.24;-30;-11.01;2
4.95;-6.92;-12.24;0.48;-27.55;-26.76;2
5.48;-8.78;-13.93;-32.98;-1.6;-52.16;2
4.43;-12.69;-13.13;-53.57;17.43;-72.18;2
2.48;-16;-12.34;-48.77;26.87;-86.3;2
0.4;-17.03;-13.32;-40.98;20.61;-95.74;2
-1.49;-17.29;-14.43;-43.53;3.38;-101.69;2
-1.93;-16.35;-14.62;-54.66;-4.22;-105.86;2
-1.75;-15.28;-14.77;-65.58;0.58;-105.96;2
-1.53;-14.9;-14.32;-75.87;4.63;-107.36;2
-1.13;-14.69;-13.27;-86.24;3.9;-112.26;2
-1.16;-15.61;-11.9;-91.72;6.33;-119.53;2
-1.35;-16.53;-10.86;-86.2;16.5;-122.63;2
-1.9;-16.04;-9.84;-79.34;31.46;-116.5;2
-2.07;-15.25;-9.16;-75.9;40.84;-110.84;2
-3.28;-14.19;-7.83;-71.08;36.94;-109.04;2
-5.62;-13.87;-7.01;-64.95;34.46;-101.8;2
-7.82;-12.71;-6.34;-63.1;24.35;-88.48;2
-9.69;-10.99;-5.31;-53.34;23.19;-73.53;2
-10.85;-9.83;-4.21;-29.92;32.74;-59.75;2
-10.54;-7.72;-3.31;-0.4;46.88;-43.5;2
-9.7;-5.06;-3.76;22.54;50.42;-25.62;2
-9.6;-2.75;-5.17;39.3;35.75;-10.78;2
-10.19;-0.6;-6.44;50.5;10.91;1.37;2
-9.88;1.86;-6.74;53.22;-12.06;14.18;2
-8.91;3.27;-6.59;51.3;-29.5;35.6;2
-7.25;1.88;-7.03;47.53;-42.2;70.34;2
-3.75;-2.34;-7.78;49.22;-44.14;103.25;2
0.38;-6.03;-9.07;64.53;-34.62;108.36;2
-0.84;-7.09;-7.45;79.89;-49.69;86.45;2
-3.99;-8.68;-7.55;91.03;-83.68;97.05;2
-5.94;-13.01;-8.71;98.47;-118.25;122.02;2
-8.3;-19.55;-9.84;78.48;-181.05;133.71;2
0.02;-19.55;-15.93;74.97;-129.38;154.14;2
4.13;-19.55;-10.25;110.15;-99.95;135.92;2
3.23;-17.49;-12.23;125.73;-97.16;155.37;2
5.56;-19.55;-12.72;118.47;-48.82;158.67;2
7.25;-19.55;-11.06;117.53;30.97;120.21;2
1.36;-17.46;-8.55;127.21;17.52;102.6;2
-0.72;-16.88;-9.62;122.73;26.61;111.87;2
-2.35;-16.23;-10.45;102.01;46.82;119.5;2
-3.05;-16.4;-10.35;81.24;50.4;118.05;2
-1.92;-15.64;-9.96;69.39;41.24;114.19;2
-1.74;-14.59;-9.41;61.51;21.7;104.63;2
-0.84;-12.98;-9.59;54.2;3.51;91.99;2
0.58;-10.26;-9.76;47.34;-17.36;80.89;2
1.44;-8.21;-10.39;37.21;-49.05;67.12;2
1.77;-6.92;-11.29;23.37;-78.25;48.73;2
2.38;-5.54;-12.38;8.56;-87.38;29.31;2
2.91;-3.79;-13.24;-7.22;-84.15;6.42;2
3.47;-1.8;-13.53;-22.49;-78.42;-17.56;2
3.66;-0.01;-13.52;-38.28;-67.8;-40.69;2
4.39;1.39;-13.02;-51.63;-41.42;-59.08;2
4.9;1.66;-11.59;-61.5;-0.14;-70.53;2
4.48;1.47;-9.78;-66.86;42.57;-77.93;2
2.47;0.7;-8.7;-73.93;74.36;-88.53;2
-1.44;-1.02;-7.35;-83.95;82;-84.51;2
-3.88;-3.79;-3.99;-69.93;55.72;-67.61;2
-6.41;-6.12;-4.48;-33.64;34.66;-43.69;2
-7.78;-6.62;-9.64;-0.21;28.88;-18.63;2
-7.17;-4.87;-15.17;3.73;27.83;10.27;2
-3.43;-1.54;-16.83;-24.6;65.99;40.55;2
3.14;0.45;-13.61;-77.16;110.24;54.92;2
8.8;-0.13;-2.27;-113.25;114.96;42.94;2
9.37;-5.89;3.13;-44.88;82.2;-3.71;2
1.43;-9.89;-6.11;23.21;114.78;-15.87;2
-3.48;-16.37;-12.33;2.52;21.18;-10.08;2
-2.29;-19.55;-14.49;-32.79;-3.64;-22.79;2
0.53;-19.55;-8.27;-25.63;26.25;1.92;2
5.27;-13.99;-9.9;36.65;45.58;14.88;2
5.8;-4.68;-13.61;53.71;30.27;-1.02;2
4.5;-1.81;-15.58;27.93;22.16;-15.05;2
3.99;-3.55;-16.46;-19.6;58.45;-38.19;2
2.68;-7.94;-15.39;-62.18;72.28;-65.04;2
-0.25;-14.62;-12.23;-69.97;73.44;-80.18;2
-1.73;-18.27;-11.51;-45.19;57.83;-95.87;2
-2.96;-19.55;-13.66;-31.1;9.45;-110.09;2
-3.65;-19.23;-15.06;-37.2;-20.94;-116.42;2
-4.84;-16.33;-14.91;-43.7;-21.9;-114.19;2
-4.36;-15.06;-14.65;-53.27;-21.02;-106.88;2
-3.44;-14.35;-13.95;-67.08;-14;-100.54;2
-2.44;-14.07;-12.81;-76.72;-12.75;-96.78;2
-1.4;-13.38;-11.56;-82.28;-14.07;-97.77;2
-0.26;-13.48;-10.46;-81.17;-5.6;-103.98;2
-0.03;-13.81;-9.81;-77.34;1.58;-109.94;2
0.22;-14.17;-9.64;-74.61;18.46;-108.92;2
-0.67;-15.29;-9.36;-76.9;31.61;-105.24;2
-2.16;-16.06;-8.4;-75.13;36.26;-103.45;2
-4.05;-15.23;-6.98;-63.62;41.32;-97.51;2
-6.31;-13.17;-5.88;-49.27;41.64;-88.49;2
-8.29;-11.53;-5.73;-32.93;42.03;-76.62;2
-9.51;-10.35;-6.11;-16.08;46.38;-62.7;2
-10.16;-8.53;-6.97;3.63;44.66;-49.35;2
-10.36;-6.01;-7.85;17.66;35.73;-34.88;2
-10.36;-3.31;-8.2;25.11;13.46;-24.33;2
-9.41;-0.65;-7.42;22.01;-8.18;-18.88;2
-9.78;1.77;-5.83;16.08;-16.9;-0.45;2
-8.73;2.46;-5.1;22.09;-28.09;28.98;2
-5.83;0;-5.3;36.88;-44.54;59.83;2
-2.89;-2.36;-5.96;50.09;-51.54;79.96;2
-1.13;-5.02;-6.55;70.1;-54.51;87.73;2
-0.84;-7.38;-7.35;92.97;-48.65;87.12;2
-3.46;-8.04;-7.26;102.78;-68.68;89.47;2
-6.05;-10.9;-8.42;101.25;-91.36;112.27;2
-8.8;-19.55;-8.14;92.73;-140.47;136.78;2
-5.1;-19.55;-10.43;86.14;-172.42;163.8;2
1.95;-19.55;-10.5;113.84;-99.51;149.11;2
1.95;-18.93;-10.72;139.15;-92.93;171.49;2
3.6;-19.35;-12.27;130.89;-79.88;187.54;2
6.11;-19.55;-12.84;130.74;-11.47;165.83;2
3.25;-19.55;-9.53;145.55;14.41;131.93;2
0.13;-18.8;-9.58;158.08;19.19;132.54;2
-1.96;-17.98;-10.41;147.58;20.36;138.28;2
-2.99;-17.14;-10.87;130.96;26.93;146.52;2
-2.29;-16;-11;115.14;30.74;146.57;2
-1.33;-15.07;-10.52;98.72;31.32;140.73;2
-1.29;-13.43;-9.67;82.27;15.66;128.57;2
-1.17;-11.24;-9.89;69.66;-18.91;116.57;2
-0.92;-9.08;-11.42;54.95;-64.62;102.22;2
-0.49;-7.67;-12.75;35.24;-100.19;83;2
-0.29;-6.66;-13.58;13.08;-122.68;57.76;2
0.15;-5.39;-14.04;-7.86;-131.72;32.31;2
0.72;-4.22;-13.42;-22.45;-123.88;8.77;2
1.43;-3.1;-12.75;-33.61;-108.23;-14.54;2
1.7;-2.4;-12.25;-44.31;-94.76;-33.06;2
3.39;-1.3;-12.8;-56.63;-64.71;-50.64;2
4.97;-0.32;-13.7;-70.75;-17.49;-66.2;2
6.06;0.08;-14.7;-90.09;33.62;-79.46;2
6.49;-0.17;-14.53;-112.87;68.87;-94.45;2
5.1;-1.66;-12.71;-129.08;76.88;-107.84;2
2.68;-3.55;-9.87;-128.7;62.58;-107.04;2
1.58;-4.73;-6.88;-111.68;33.35;-101.31;2
0.37;-5.45;-4.75;-81.99;10.7;-94.49;2
-1.57;-5.74;-4.8;-53.08;1.4;-82.43;2
-2.65;-5.02;-6.16;-35.16;9.48;-66.72;2
-3.54;-4.16;-8.38;-32.63;32.56;-49.75;2
-3.45;-2.69;-9.94;-38.15;72.19;-33.5;2
-3.57;-2.54;-9.28;-49.03;122.58;-18.53;2
-2.35;-3.16;-5.74;-63.4;172.47;-4.14;2
0.87;-2.18;-2.8;-63.71;194.11;8.87;2
6.7;-3.37;-9.22;-48.79;115.93;-0.18;2
7.18;-6.31;-13.86;-56.18;85.94;-16.92;2
6.75;-11.07;-14.99;-62.44;91.91;-23.11;2
7.1;-19.55;-17.97;-54.6;72.08;-53.57;2
4.04;-19.55;-19.49;-39.28;54.63;-91.15;2
-1.33;-19.55;-14.1;-61.54;34.26;-87.5;2
-6.77;-15.43;-8.73;-37.46;67.53;-48.7;2
-3.38;-13.3;-9.26;-3.53;26.56;-39.09;2
-1.63;-13.46;-12.5;-5.63;26;-46.55;2
-0.25;-13.16;-13.9;-27.84;11.38;-51.82;2
2.63;-13.88;-15.01;-44.51;-2.39;-61.19;2
3.56;-14.88;-15.19;-55.48;-7.18;-85.16;2
1.67;-16.75;-15.17;-54.79;-10.27;-105.43;2
0.48;-17.24;-16.29;-52.13;0.87;-115.92;2
-0.33;-17.29;-17.44;-61.64;5.64;-115.33;2
-0.17;-17.24;-16.87;-73.26;14.55;-111.21;2
-0.15;-16.24;-15.76;-92.28;20.32;-108.17;2
0.49;-15.87;-13.21;-104.87;28.75;-107.17;2
-0.11;-16.41;-9.7;-104.07;35.65;-106.31;2
-1.25;-17.17;-7.39;-88.53;47.12;-110.52;2
-3.39;-16.08;-5.46;-65.37;53.57;-108.37;2
-4.94;-13.45;-6.04;-53.96;53.06;-99.43;2
-5.68;-11.6;-7.03;-54.07;50.99;-87.34;2
-6.67;-11.17;-6.63;-53.48;51.16;-75.74;2
-8.26;-11.32;-5.5;-43.22;52.27;-64.88;2
-9.69;-10.26;-3.53;-19.72;56.02;-53.52;2
-10.44;-8.08;-3.59;13.95;59.34;-38.5;2
-11.22;-6.04;-5.45;36.67;59.73;-24.72;2
-11.71;-3.72;-6.77;47.93;58.54;-13.72;2
-11.58;-1.55;-7.74;55.66;42.36;-9.1;2
-11.47;0.72;-8.08;58.21;0.7;3.12;2
-10.95;1.63;-8.08;59.95;-44.57;24.34;2
-9.45;2.56;-8.17;59.5;-67.13;57.03;2
-7.1;1.86;-8.56;51.41;-63.82;90.39;2
-4.46;-0.74;-8.67;40.86;-63.18;118.83;2
-1.77;-3.96;-8.28;45.4;-69.99;129.78;2
-1.44;-7.62;-7.18;76.3;-56.63;120.86;2
-3.52;-10.18;-7.55;103.34;-56.24;113.54;2
-7.47;-13.35;-8.38;106.11;-90.59;124.02;2
-11.29;-19.55;-9.46;85;-155.42;162.04;2
-0.54;-19.55;-16.68;62.92;-138.97;166.05;2
5.55;-19.55;-10.6;94.88;-122.78;136.62;2
2.78;-18.1;-12.77;127.98;-127.95;156.57;2
2.91;-19.55;-14.35;117.61;-131.78;162.69;2
2.69;-19.55;-14.02;109.46;-108.17;158.12;2
4.55;-19.55;-12.57;116.83;-58.46;126.47;2
1.22;-19.55;-9.65;134.24;-50.2;111.55;2
-0.11;-19.55;-9.89;142.38;-41.39;122.15;2
0.21;-17.59;-10.96;136.57;-15.89;127.53;2
1.55;-16.72;-12.71;118.56;18.54;124.09;2
2.23;-14.6;-12.73;92.39;36.91;116.29;2
1.95;-12.81;-11;70.84;31.56;103.96;2
1.56;-10.83;-9.67;59.91;-0.88;90.6;2
1.49;-8.88;-9.99;55.01;-36.68;81.26;2
1.83;-6.75;-11.37;47.14;-68.84;69.72;2
2.16;-4.99;-12.91;31.04;-90.1;51.08;2
2.28;-3.41;-13.89;9.65;-103.94;25.87;2
2.29;-1.99;-13.87;-9.77;-105.55;-3.93;2
2.06;-1.14;-13.6;-28.44;-92.5;-30.11;2
2;-0.36;-13.57;-50.59;-67.54;-46.43;2
3;-0.12;-13.43;-69.82;-28.33;-55.14;2
4.77;-0.31;-13.49;-81.69;30.06;-66.84;2
5.03;-0.56;-14.22;-93.73;85.45;-81.16;2
4.22;-2.06;-13.15;-102.31;105.14;-90.38;2
3.22;-2.46;-12.62;-111.41;77.98;-98.74;2
2.37;-3.64;-10.53;-113.4;32.25;-100.71;2
1.13;-5.47;-7.5;-98.31;-3.55;-103.51;2
-0.93;-7.27;-6.68;-68.25;-11.31;-99.53;2
-3.33;-7.94;-8.22;-47.06;6.83;-83.4;2
-4.41;-7.62;-10.13;-43.59;49.57;-63.44;2
-5.89;-7.19;-10.8;-49.48;90.99;-39.93;2
-6.51;-6.83;-8.09;-55;142.38;-4.66;2
-3.79;-5.48;-3.74;-58.25;202.99;26.22;2
3.42;-2.49;-4.74;-60.37;185.19;40.22;2
9.34;-2.89;-7.37;-59.46;84.36;28.24;2
11.04;-4.68;-10.65;-69.7;84.23;-0.61;2
11.35;-8.6;-13.29;-76.24;118.38;-26.26;2
8.89;-15.75;-17.5;-46.1;96.21;-75.38;2
4.8;-19.55;-20.15;-14.95;66.3;-121.17;2
-2.55;-19.55;-14.6;-36;-5.61;-126.96;2
-11.69;-19.55;-9.81;-55.11;17.09;-79.07;2
-10.22;-15.76;-8.57;-22.77;46.21;-23.21;2
-2.37;-14.15;-10.75;-4.9;17.98;-16.83;2
1.75;-12.42;-12.75;-4.75;-13.46;-33.19;2
3.75;-12.32;-14.77;-7.22;-27.3;-53.47;2
4.84;-13.22;-17.09;-7.05;-24.07;-77.23;2
5.75;-14.5;-18.85;-12.39;5.22;-105.81;2
5.34;-16.02;-19.35;-32.77;9.16;-133.28;2
3.57;-16.35;-19.6;-69.37;-0.5;-148.56;2
1.47;-15.99;-19.09;-113.95;6.13;-148.35;2
0.21;-15.5;-16.54;-152.7;33.83;-137.92;2
-0.39;-16.96;-10.72;-169.33;61.32;-122.65;2
-0.78;-19.04;-4.33;-135.41;56.52;-121;2
-2.84;-18.93;-3.49;-81.59;54.24;-116.75;2
-5.04;-16.22;-5.94;-49.03;55.49;-113.08;2
-6.66;-14.27;-8.28;-44.79;46.12;-104.47;2
-7.92;-13.29;-8.97;-52.63;42.34;-92.57;2
-9.09;-12.15;-7.57;-50.66;40.46;-78.11;2
-10.56;-10.95;-4.7;-34.33;50.66;-59.29;2
-11.62;-9.17;-2.45;8.41;61.87;-35.28;2
-12.14;-6.92;-4.88;43.21;72.89;-15.49;2
-12.28;-4.83;-6.37;57.12;66.06;-0.9;2
-12.69;-2.84;-7.3;61.18;41.83;9.73;2
-12.98;-0.89;-7.94;58.24;0.67;29.46;2
-11.4;0.45;-8.65;55.79;-51.33;53.69;2
-9.86;1.04;-9.1;51.81;-88.32;83.44;2
-6.28;-0.8;-8.94;44.23;-92.16;115.63;2
-2.3;-3.38;-7.97;39.56;-91.47;130.01;2
0.72;-6.44;-6.87;64.96;-95.67;126.34;2
1.69;-7.98;-7;111.79;-100.28;110.02;2
0.46;-8.68;-9.18;133.19;-113.94;101.34;2
-1.63;-10.27;-11.34;122.56;-114.49;106.18;2
-2.3;-13.41;-12.5;105.38;-110.68;127.42;2
0.37;-19.55;-13.69;87.84;-121.28;134.55;2
3.44;-19.55;-13.68;96.83;-115.59;119.31;2
1.94;-19.55;-12.14;139.19;-112.88;126.71;2
1.08;-19.46;-14.22;145.95;-103.86;140.98;2
2.25;-19.55;-15.71;127.95;-86.59;143.79;2
6.37;-19.55;-16.13;110.69;-16.74;138.9;2
3.66;-19.55;-11.82;99.92;-13.01;119.76;2
1.53;-18.25;-10.07;93.17;-33.7;122.79;2
0.09;-15.83;-11.09;94.83;-2.59;133.35;2
1.57;-13.47;-12.7;85.34;41.03;134.66;2
2.34;-12.73;-12.86;61.49;66.22;121.07;2
3.79;-11.41;-14.4;24.37;64.25;90.57;2
2.54;-9.77;-13.21;-6.52;32.48;74.4;2
1.83;-8.89;-11.94;-27.91;-18.35;55.46;2
1.89;-7.51;-10.9;-34.02;-65.04;35.91;2
0.83;-6.27;-9.82;-26.86;-105.9;19.31;2
0.64;-5.46;-9.59;-18.66;-142.4;-4.46;2
1.52;-4.38;-10.75;-16.5;-154.91;-25.41;2
3.32;-2.64;-12.16;-19.89;-122.94;-39.58;2
5.96;-0.98;-13.33;-28.4;-61.97;-50.35;2
8.02;0.02;-13.41;-41.65;-2.68;-64.02;2
7.47;-0.01;-12.64;-54.46;42.55;-80.07;2
4.17;-1.54;-11.45;-60.42;71.09;-83.09;2
2.68;-3.3;-10.24;-63.29;77.76;-84.32;2
0.2;-5.26;-8.61;-57.51;74.8;-86.63;2
-2.65;-6.33;-8.23;-46.79;72.31;-77.46;2
-4.28;-6.49;-9.12;-44.71;73.46;-61.3;2
-5.07;-5.95;-10.31;-48.95;88.61;-43.49;2
-4.84;-4.77;-10.95;-49.48;121.51;-26.14;2
-3.64;-3.81;-10.4;-45.68;153.19;-12.01;2
-2.42;-3.16;-9.03;-42.59;172.29;-0.29;2
-0.27;-2.05;-6.98;-44.31;186.94;10.86;2
2.16;-1.31;-6.07;-51.17;144.19;15.51;2
6.68;-4.49;-8.18;-46;49.33;4.08;2
8.04;-9.2;-8.97;-34.65;37.06;-20.49;2
6.13;-13.72;-12.17;-10.18;45.64;-46.21;2
3.08;-19.55;-17.91;20.32;15.44;-70.08;2
-0.91;-19.55;-18.82;18.91;11.17;-83.27;2
-4.82;-17.42;-13.29;-0.39;19.42;-48.42;2
-2.46;-10.18;-11.35;6.47;15.78;-14.09;2
2.53;-9.75;-14.77;-3.6;21.58;-29.42;2
3.74;-10.16;-16.1;-20.09;9.09;-56.11;2
4.13;-12.93;-17.55;-44.18;-15.87;-75.97;2
3.71;-15.55;-17.26;-64.03;-36.41;-90.24;2
2.21;-18.24;-16.53;-75.83;-26.82;-101.61;2
1.12;-19.5;-14.84;-78.31;-16.35;-108.04;2
1.62;-19.07;-13.31;-70.11;-2.84;-112.4;2
2.88;-18.54;-12.79;-62.2;8.04;-113.76;2
3.82;-17.92;-13.54;-65.08;30.38;-112.43;2
3.28;-16.96;-13.18;-78.96;49.87;-111.96;2
1.89;-17.61;-11.97;-91.84;74.06;-111.34;2
-1.03;-18.74;-9.56;-94.7;85.4;-107.01;2
-3.62;-17.37;-7.65;-79.89;93.93;-99.46;2
-5.84;-15.43;-7.08;-62.05;70.99;-99.38;2
-7.69;-13.25;-7.31;-49.44;54.58;-92.91;2
-9.89;-12.05;-7.03;-38.04;48.25;-82.56;2
-11.86;-10.59;-5.88;-22.94;33.78;-68.84;2
-12.79;-8.57;-5.07;-2.3;21.55;-50.23;2
-13.51;-6.44;-5.48;13.62;24.64;-30.18;2
-14.24;-3.94;-5.92;25.96;29.89;-14.7;2
-14.69;-1.56;-6.79;38.97;10.95;-1.28;2
-13.03;0.92;-7.52;53.89;-34.64;6.87;2
-11.88;2.34;-8.2;63.19;-78.94;36.47;2
-8.66;2.02;-8.94;59.95;-101.39;77.92;2
-4.74;0.52;-9.48;49.05;-101.77;111.53;2
-0.78;-2.43;-8.54;36.62;-97.02;124.77;2
1.33;-5.59;-6.39;53.52;-64.39;117.93;2
1.13;-7.31;-4.75;100.28;-30.59;101.89;2
-0.86;-6.69;-5.35;115.8;-30.2;102.39;2
-2.65;-8.37;-7.35;108.52;-48.1;120.86;2
-4.26;-12.8;-9.66;100.82;-76.2;149.58;2
-5.65;-19.55;-11.12;93.88;-121.85;181.91;2
0.58;-19.55;-14.64;80.25;-131.74;172.77;2
2.94;-19.55;-9.37;115.43;-107.65;149.9;2
0.3;-18.05;-11.61;144.56;-125.19;160.89;2
2.48;-19.55;-14.05;137.99;-127.37;170.02;2
8.4;-19.55;-16.47;132.4;-50.71;141.5;2
5.59;-19.55;-11.92;133.68;-41.39;102.18;2
1.65;-19.41;-10.38;140.98;-38.8;110;2
-0.28;-18.38;-10.74;131.15;-19.58;120.92;2
-0.5;-17.78;-11.7;115.33;7.46;120.86;2
0.39;-17.05;-12.22;96.05;21.05;113.39;2
1.02;-15.44;-11.61;74.63;17.06;98.83;2
0.95;-13.35;-10.63;61.86;-1.88;86.49;2
1.32;-11.34;-10.9;51.05;-31.03;73.31;2
1.76;-8.9;-11.82;37.67;-57.22;60.63;2
2.8;-7.14;-12.82;20.01;-76.89;42.57;2
3.42;-5.76;-13.85;-1.48;-84.42;19.59;2
3.82;-4.01;-14.47;-22.62;-82.92;-2.45;2
4.1;-2.55;-14.48;-41.4;-74.78;-26.68;2
4.48;-1.12;-13.87;-59.05;-51.32;-48.14;2
3.82;-1.09;-12.61;-74.49;-17.63;-60.4;2
4.52;-0.68;-11.45;-78.52;26.41;-66.33;2
5.01;-0.99;-11.94;-85.62;81.32;-78.14;2
4.11;-1.84;-11.56;-98.07;116.48;-87.23;2
2.3;-3.45;-10.2;-106.76;113.16;-91.26;2
1.55;-3.29;-8.75;-107.26;78.7;-95.96;2
-1.47;-5.18;-5.72;-84.86;38.46;-87.54;2
-2.74;-6.44;-4.08;-46.57;13.1;-84.27;2
-4.43;-6.85;-5.45;-14.52;4.33;-72.41;2
-6.2;-6.76;-8.27;-2.72;14.92;-56.3;2
-7.69;-6.35;-11.63;-5.31;53.58;-35.37;2
-7.87;-6.04;-12.57;-10.21;126.54;-0.82;2
-5.11;-3.43;-10.76;-25.32;189.82;38.09;2
3.57;0.32;-10.69;-66.39;198.06;58.53;2
10.46;0.07;-8.02;-109.95;105.29;53.92;2
17.6;-4.81;-3.52;-107.57;41.95;10.54;2
13.16;-11.2;-7.93;-59.82;110.09;-55.37;2
5.1;-17.3;-14.39;-6.04;99.16;-96.66;2
0.81;-19.55;-20.02;14.72;46.3;-125.9;2
-3.96;-19.55;-15.17;-20.99;-62.1;-120.69;2
-9.14;-17.35;-11.2;-26.24;2.95;-50.59;2
-3.79;-11.44;-11.43;3.74;28.75;-26.23;2
0.29;-11.98;-13.69;-7.57;38.2;-35.85;2
1.73;-12.97;-14.76;-38.7;3.58;-51.08;2
