acc_x;acc_y;acc_z;gyro_x;gyro_y;gyro_z;label
1.06;-9.69;-12.05;-57.76;-13.56;-61.38;1
1.99;-10.29;-11.58;-56.87;-27.08;-68.88;1
2.32;-10.54;-11.27;-52.8;-34.91;-79.67;1
1.46;-10.59;-11.17;-45.87;-30.37;-87.5;1
-0.75;-10.27;-11.09;-38.94;-20.13;-85.36;1
-2.76;-9.98;-10.43;-36.34;-9.27;-74.01;1
-4.45;-9.89;-9.01;-35.95;-3.67;-57.07;1
-4.91;-9.79;-8.06;-31.25;2.96;-38.98;1
-3.78;-9.81;-8.49;-21.95;2.57;-25.46;1
-2.49;-10.01;-10.25;-14.34;-2.87;-16.08;1
-1.02;-10;-11.57;-7.69;-6.24;-8.93;1
0.63;-9.95;-12.27;-4.7;-1.67;-7.11;1
1.73;-10.26;-11.92;-3.75;10.39;-11.11;1
1.41;-11.1;-11.39;1.55;25.93;-15.02;1
0.08;-11.85;-11.43;14.65;38.12;-10.96;1
-0.99;-11.59;-12.02;26.86;43.4;-0.37;1
-2.43;-10.65;-11.84;34.05;39.73;15.88;1
-4.15;-9.64;-11.11;38.05;35.51;37.67;1
-5.31;-9.02;-9.67;43.17;32.73;61.27;1
-5.54;-9.28;-8.33;50.76;29.84;85.6;1
-4.52;-10.4;-6.56;62.44;25.39;105.15;1
-3.48;-11.83;-4.62;83.07;13.87;119.88;1
-1.39;-12.53;-6.78;100.87;11.7;124.63;1
0.62;-12.58;-9.38;103.39;24.51;115.94;1
1.9;-12.93;-11.14;93.86;47.33;103.57;1
2.39;-13.5;-12.32;80.57;66.16;97.12;1
2.35;-13.92;-12.46;70.47;63.74;100.14;1
2.44;-14.52;-12.11;63.69;48.15;101.38;1
2.55;-14.77;-11.65;65.34;40.02;102.28;1
1.95;-14.04;-11.19;76.6;18.7;105.52;1
1.24;-13.24;-11.04;86.05;-12.33;109.18;1
0.27;-13.28;-11.5;87.49;-40.37;111.37;1
-0.13;-13.58;-12.48;87.89;-53.96;114.53;1
-0.01;-13.53;-13.03;77.63;-42.91;115.68;1
-0.13;-12.71;-12.77;67.72;-29.28;114;1
1.03;-12.9;-12.99;59.56;-3.74;111.6;1
0.75;-11.52;-12.24;51.43;-13.65;100.47;1
0.62;-10.95;-11.27;44.5;-24.46;94.75;1
0.03;-10.43;-10.62;41.8;-33.89;91.73;1
-0.09;-10.01;-10.41;43.66;-40.58;89.08;1
0.02;-9.56;-10.29;45.47;-54.75;83.8;1
0.24;-8.93;-10.4;43.53;-63.46;77.34;1
0.49;-8.26;-10.53;37.99;-70.49;73.6;1
1.15;-7.76;-10.58;30.53;-72.55;68.5;1
1.02;-7.11;-10.7;21.5;-71.12;66.72;1
2.07;-6.88;-10.61;14.52;-68.3;59.68;1
2.41;-6.51;-10.72;5.14;-67.34;50.81;1
2.72;-6.21;-10.37;-2.05;-67.45;41.44;1
2.68;-5.95;-10.18;-6.44;-66.59;31.23;1
2.39;-5.64;-9.84;-9.74;-65.15;20.82;1
2.04;-5.32;-9.43;-11.6;-63.2;9.35;1
1.56;-5.24;-9;-12.73;-59.52;-1.21;1
0.99;-4.97;-8.53;-13.47;-55.83;-9.84;1
0.54;-4.74;-8.29;-16.59;-55.34;-17.3;1
0.02;-4.85;-8.23;-24.54;-58.49;-24.69;1
-0.57;-5.29;-7.8;-36.22;-61.34;-31.72;1
-1.62;-6.17;-6.45;-45.27;-63.68;-37.63;1
-3.03;-7.05;-5.4;-48.57;-64.43;-42.25;1
-4.66;-7.75;-4.69;-50.02;-61.65;-44.52;1
-6.2;-8.82;-4.35;-50.21;-52.73;-42.93;1
-7.26;-10.03;-4.15;-47.84;-32.52;-37.79;1
-7.93;-11.41;-3.91;-42.74;-10.94;-29.51;1
-7.89;-11.97;-4.59;-35.75;12.01;-22.62;1
-8.21;-11.82;-6.26;-26.24;33.28;-9.77;1
-7.21;-10.27;-8.02;-19.59;45.9;2.12;1
-6.22;-8.44;-9.48;-15.02;60.89;12.92;1
-5.36;-7.05;-10.87;-12.79;80.09;22.73;1
-3.63;-6.11;-12.16;-17.52;77.39;34.56;1
-0.27;-6.11;-13.01;-36.18;48.67;40;1
2.06;-8.56;-11.1;-64.82;12.54;27.37;1
0.53;-16.89;-1.47;-60.17;7.87;13.99;1
-3.89;-19.55;3.69;45.74;2.91;16.13;1
-4.16;-17.66;-5.1;106.59;-32.95;18.59;1
-3.11;-9.22;-11.14;84.93;-27.1;54.75;1
1.92;-3.57;-13.54;21.92;-11.62;77.16;1
5.8;-0.79;-11.65;-13.64;-12.76;74.24;1
7.72;0.81;-9.12;-13.17;4.38;48.22;1
6.23;-0.43;-11.25;8.53;37.58;12.43;1
2.62;-2.15;-13.06;7.64;68.82;-7.56;1
1.01;-5.15;-13.36;-11.94;91.71;-21.12;1
-1.12;-9.22;-12.52;-22.77;101.32;-33.79;1
-4.48;-12.03;-11.67;-27.53;90.26;-41.5;1
-7.19;-13.65;-11.02;-31.38;56.39;-42.65;1
-8.08;-14.12;-10.91;-33.99;17.19;-31.08;1
-6.77;-14.94;-11.06;-31.13;-3.84;-15.58;1
-3.91;-14.3;-10.97;-21.46;-30.75;-6.26;1
-1.24;-12;-11.16;-17.76;-51.76;-4.06;1
0.19;-10.24;-12.21;-22.89;-49.52;-8.95;1
1.67;-9.3;-12.43;-32.61;-43.1;-17.81;1
2.93;-9.07;-11.69;-42.05;-30.03;-32.82;1
2.74;-10;-11.05;-45.97;-4.23;-51.16;1
1.84;-11.74;-10.87;-47.93;17.28;-70.6;1
0.53;-13.84;-10.8;-45.86;29.25;-77.96;1
-0.35;-15.04;-11.18;-46.52;31.9;-80.59;1
-1.15;-15.58;-11.48;-48.82;35.09;-80.12;1
-1.87;-15.89;-11.7;-47.05;33.07;-75.34;1
-1.87;-15.1;-11.79;-48.76;28.37;-71.02;1
-1.3;-13.77;-12.41;-48.95;29.7;-71.82;1
-0.18;-12.95;-12.94;-51.21;33.45;-81.34;1
0.23;-12.13;-13;-55.47;37.48;-90.77;1
-0.01;-12.39;-13.45;-62.86;38.33;-96.3;1
-0.21;-12.62;-13.55;-75.06;38.12;-103.27;1
-0.38;-12.56;-12.47;-86.28;38.87;-112.01;1
-0.79;-12.14;-11.29;-95.7;43.91;-116.49;1
-3.08;-11.68;-7.97;-90.68;47.99;-112.56;1
-4.27;-11.34;-5.81;-64.79;55.99;-105.77;1
-5.9;-10.25;-5.93;-37.94;56.03;-96.98;1
-7.19;-8.92;-6.54;-24.02;51.59;-85.12;1
-7.81;-7.27;-6.61;-16.89;47.57;-69.1;1
-8.36;-6.14;-6.18;-7.85;42.56;-54.88;1
-8.47;-5.42;-6.13;3.5;45.5;-41.08;1
-7.96;-4.51;-5.31;14.82;56.83;-23.92;1
-7.18;-3.95;-4.81;29.79;67.62;-4.08;1
-6.22;-3.61;-4.92;46.01;72.09;12.52;1
-5.54;-3.39;-5.44;60.08;67.78;27.65;1
-4.97;-3.4;-6.39;70.01;58.8;42.92;1
-4.26;-4.5;-7.54;74.35;56.04;57.01;1
-4.45;-5.55;-8.6;74.4;52.38;81.08;1
-4.94;-8.33;-9.61;76.88;25.74;105.27;1
-5.83;-13.86;-11.16;80.37;-22.27;114.42;1
-6.9;-19.55;-12.9;66.89;-99.01;89.7;1
-4.69;-19.55;-15.01;65;-85.32;97.28;1
-3.29;-17.19;-12.62;79.85;-80.64;108.42;1
-1.48;-14.99;-11.43;93.63;-100.23;127.92;1
0.93;-16.99;-11.48;84.98;-93.84;134.5;1
4.03;-18.96;-12.05;85.34;-43.91;121.64;1
5.72;-15.72;-12.28;93.45;7.87;93.7;1
3.22;-10.87;-10.41;93.46;15.93;78.15;1
1.32;-9.14;-10.61;84.6;8.71;90.33;1
0.39;-8.97;-10.39;79.66;16.77;104.26;1
0.62;-9.52;-9.5;81.05;18.09;103.44;1
0.12;-8.75;-9.33;81.6;13.7;102.57;1
-1.04;-8.58;-9.35;75.69;0.54;101.27;1
-2.01;-8.76;-9.52;65.39;-10.57;105.96;1
-2.2;-10.43;-9.19;59.25;-21.31;114.24;1
-1.1;-11.37;-8.86;60.47;-37.53;115.59;1
0.21;-11.34;-9.05;63.2;-52.15;108.88;1
1;-10.96;-9.72;65.26;-61.42;97.62;1
1.69;-10.89;-10.47;63.83;-60.05;86.25;1
1.71;-10.18;-10.81;56.53;-52.17;72.86;1
0.89;-9.41;-10.6;46.31;-39.61;59.66;1
0.52;-9.1;-10.24;35.4;-22.86;46.54;1
-0.1;-8.41;-9.59;24.57;-9.17;34.81;1
0.1;-8.27;-8.62;18.47;-5.7;25.57;1
0.06;-7.65;-8.32;7.59;-15.26;14.81;1
-0.18;-6.82;-7.66;-3.21;-34.94;2.16;1
-0.38;-5.72;-7.78;-15.24;-52.72;-12.77;1
-0.92;-5.22;-8.4;-28.21;-62.58;-33.85;1
-1.68;-5.24;-9.16;-41.28;-67.94;-51.94;1
-2.98;-4.96;-9.29;-54.79;-67.46;-58.93;1
-3.91;-4.38;-8.91;-67.53;-58.7;-59.48;1
-4.92;-4.05;-8.33;-80.44;-42.27;-58.11;1
-5.61;-4.05;-8.27;-92.6;-25.22;-55.77;1
-6.2;-4.28;-8.75;-106.84;-15.76;-55.11;1
-6.11;-5.15;-8.58;-121.43;-15.24;-55.73;1
-5.09;-6.77;-6.85;-126.18;-27.3;-59;1
-3.57;-8.72;-4.13;-107.83;-49.2;-67.13;1
-3.01;-9.96;-2.24;-76.45;-70.37;-72.74;1
-4.26;-10.59;-2.5;-48.53;-75.26;-73.5;1
-6.04;-9.81;-5.79;-35.58;-46.14;-65.38;1
-5.65;-8.06;-9.53;-36.91;-7.34;-48.59;1
0.08;-6.01;-12.92;-52.26;-12.41;-36.22;1
7.22;-5.9;-14.74;-77.02;-37.24;-37.95;1
13.9;-12.14;-14.71;-106.88;-36.89;-57.29;1
17.07;-19.55;-10.62;-118.47;-39.15;-96.79;1
-0.56;-19.55;1.03;-30.03;-31.62;-79.82;1
-7.72;-19.55;-2.25;43.73;2.09;-28.87;1
-5.88;-12.16;-10.42;55.96;88.74;22.31;1
0.91;-4.25;-14.25;22.25;109.87;54.06;1
8.15;-0.9;-14.73;-34.97;112.2;48.98;1
11.38;-0.91;-12.72;-90.38;112.96;16.99;1
12.35;-3.46;-10.18;-104.24;110.93;-29.03;1
7.39;-6.4;-8.93;-76.09;122.45;-78.76;1
1.09;-8.91;-9.94;-40.63;126.44;-98.52;1
-3.6;-10.94;-11.43;-19.07;99.77;-101.79;1
-5.88;-12.59;-12.74;-13.82;47.94;-94.99;1
-6.7;-13.81;-13.36;-20.73;-4.19;-84.23;1
-6.33;-12.96;-13.18;-32.47;-19.62;-68.27;1
-5.31;-11.29;-11.79;-40.6;-16.37;-54.59;1
-3.62;-9.57;-10.47;-40.86;-27.22;-45.05;1
-1.92;-8.88;-9.87;-35.37;-41.43;-40.8;1
-0.59;-8.06;-10.05;-29.28;-53.07;-38.88;1
1.82;-7.08;-10.98;-31;-47.32;-39.9;1
3.15;-7;-11.62;-43.83;-38.85;-47.35;1
3.77;-7.45;-11.27;-59.79;-20.39;-58.35;1
3.53;-8.15;-10.35;-68.43;6.82;-66.27;1
2.72;-9.47;-9.52;-66.5;35.5;-72.55;1
1.04;-10.41;-9.03;-54.15;57.18;-72.53;1
-0.41;-10.74;-9.24;-39.28;66.35;-72.88;1
-1.65;-10.83;-9.97;-26.97;73.9;-67.56;1
-2.51;-10.69;-11.2;-20.15;80.04;-57.98;1
-2.62;-10.02;-12.33;-20.24;81.9;-50.01;1
-2.79;-9.08;-13.01;-22.4;77.64;-41.88;1
-2.06;-8.63;-13.84;-29.25;73.04;-39.74;1
-1.79;-8.51;-13.47;-39.64;56.96;-42.78;1
-1.76;-8.52;-13.07;-48.33;31.21;-45.03;1
-1.71;-8.79;-12.57;-59.63;10.53;-47.71;1
-2.24;-8.93;-11.54;-68.45;10.29;-47.17;1
-2.61;-8.96;-10.42;-71.6;25.24;-41.91;1
-2.07;-9.08;-9.36;-64.34;36.29;-33.19;1
-1.39;-9.93;-8.25;-42.86;34.77;-24.01;1
-0.8;-11.03;-8.15;-17.97;33.09;-19.04;1
-1.49;-11.92;-7.71;-1.11;42.97;-15.56;1
-3.97;-11.95;-6.52;13.81;67.73;-4.54;1
-6.19;-11.19;-6.03;28.94;90.35;14.71;1
-8.19;-10.54;-6.46;44.3;95.22;37.57;1
-10.11;-10.29;-6.85;59.66;74.33;61.31;1
-10.68;-10.29;-6.68;75.59;43.84;88.11;1
-9.33;-10.01;-6.99;90.53;19.23;107.7;1
-7.46;-11.13;-8.2;101.23;-6.59;118.22;1
-5.13;-12.75;-9.23;94.07;-26.55;132.04;1
-2.68;-17.44;-10.47;75.22;-6.94;137.6;1
0.53;-19.55;-11.94;73.75;15.06;136.78;1
3.63;-19.38;-12.25;101.66;-22.52;131.76;1
3.96;-17.89;-13.13;118.72;-66.13;128.68;1
2.55;-16.86;-14.96;126.01;-87.29;122.47;1
0.7;-16.74;-15.35;120.71;-83.6;114.11;1
-0.99;-17.53;-15.13;99.34;-60.51;109.31;1
-3.48;-16.62;-12.46;71.12;-40.04;119.76;1
-4.05;-16.52;-9.73;66.13;4.67;151.01;1
-0.11;-16.76;-7.83;85.79;21.63;164.41;1
3.25;-14.85;-8.04;98.1;4.54;161.18;1
3.64;-13.41;-9.41;96.87;-13.68;154.31;1
1.58;-11.95;-10.28;85.32;-40.17;146.81;1
0.13;-11.41;-9.75;75.89;-58.21;145.89;1
0.16;-10.54;-8.95;75.69;-76.81;141.7;1
0.83;-9.48;-8.84;78.08;-95.13;133.4;1
2.33;-8.06;-9.95;77.58;-104.09;118.58;1
3.55;-6.16;-10.81;67.87;-98.19;99.88;1
4.04;-5.04;-10.87;54.29;-91.13;81.82;1
4.32;-4.16;-10.43;40.29;-81.25;64.27;1
4.04;-3.57;-9.78;29.6;-78.84;48.31;1
3.54;-3.03;-9.84;22.64;-82.31;34.88;1
2.87;-2.42;-10.38;14.63;-86.1;22.92;1
2.42;-2.1;-11.04;6.29;-88.36;12.93;1
1.6;-1.43;-11.41;-7.15;-86.78;7.18;1
1.19;-0.99;-11.4;-22.66;-83.82;2.67;1
0.65;-0.67;-10.53;-39.86;-78.24;-5.4;1
-0.22;-1.03;-9.42;-50.57;-70.86;-17.53;1
-1.73;-1.84;-7.98;-58.42;-65.91;-30.18;1
-3.37;-2.22;-6.67;-65.15;-66.08;-40.85;1
-4.72;-2.88;-6.28;-70.72;-72.98;-49.57;1
-5.11;-3.84;-6.68;-77.18;-81.46;-56.07;1
-4.96;-4.93;-7.01;-85.26;-84.33;-58.64;1
-4.34;-7.05;-6.85;-91.87;-78.03;-54.96;1
-3.54;-9.62;-5.49;-98.67;-61.37;-44.54;1
-2.13;-13.21;-3.81;-100.88;-29.74;-33.26;1
-2.1;-16.05;-3.01;-99.58;27.38;-26.71;1
-3.23;-17.5;-2.94;-90.47;107.19;-26.59;1
-3.17;-19.55;-5.8;-83.92;150.08;-14.36;1
0.27;-19.55;-8.76;-98.77;128.53;-9.53;1
3.75;-19.55;-9.78;-84.43;107.64;-12.5;1
1.49;-19.55;-7.69;-9.6;64.45;1.14;1
3.6;-10.34;-10.33;28.05;-23.49;18.64;1
6.34;-4.68;-12.74;19.81;-31.19;22;1
7.07;-2.1;-14.36;-3.11;11.6;19.8;1
9.53;-0.2;-14.68;-39.45;81.15;0.87;1
10.83;-1.98;-15.11;-71.24;138.34;-33.71;1
10.35;-6.58;-15.06;-91.86;141.02;-80.26;1
6.99;-12.52;-13.67;-102.97;115.8;-122.14;1
1.28;-16.41;-10.35;-94.3;108.3;-148.88;1
-2.75;-18.64;-8.99;-56.57;109.99;-151.59;1
-5.21;-18.56;-10.23;-25.47;76.4;-130.38;1
-6.73;-14.59;-11.92;-24.75;61.99;-90.27;1
-5.4;-10.66;-12.39;-37.76;67.61;-65.4;1
-3.79;-9.19;-12.41;-47.37;65.41;-64.44;1
-3.87;-8.4;-12.71;-52.67;53.25;-64.28;1
-4.26;-6.9;-12.41;-57.15;30.61;-63.27;1
-3.97;-5.8;-11.97;-63.89;0.48;-64.72;1
-2.81;-5.34;-11.71;-71.25;-22.26;-71.67;1
-1.59;-5.86;-11.26;-80.24;-36.1;-84.24;1
-1.08;-6.62;-10.63;-84.65;-41.54;-94.72;1
-0.6;-8.13;-9.91;-84.21;-37.88;-97.22;1
-0.22;-9.11;-9.17;-77.87;-27.38;-92.56;1
-0.44;-10.44;-9.14;-70.47;-18.01;-84.77;1
-0.31;-10.69;-9.59;-64.66;2.99;-69.66;1
1;-10.69;-10.45;-61.61;37.91;-57.23;1
2.58;-10.13;-11.04;-60.5;64.26;-54.93;1
3.27;-9.5;-10.9;-60.67;80.16;-61.58;1
1.88;-9.18;-10.27;-57.12;92.7;-70.23;1
-0.7;-9.37;-9.58;-45.5;98.8;-71.69;1
-2.31;-9.2;-9.55;-28.6;94.84;-68.33;1
-3;-9;-10.56;-16.64;86.51;-67.29;1
-3.9;-8.64;-11.48;-13.04;80.64;-62.27;1
-4.55;-8.63;-12.34;-18.78;77.82;-55.29;1
-4.66;-9.05;-13.09;-32.54;75.4;-47.21;1
-4.11;-9.7;-11.91;-43.95;62.67;-39.24;1
-3.07;-9.43;-9.5;-40.6;55.65;-35.05;1
-2.15;-8.8;-7.57;-14.39;42.36;-39.23;1
-3.31;-8.65;-9.53;8.6;35.49;-41.02;1
-5.04;-9.37;-11.5;17.82;23.23;-34.2;1
-6.58;-10.36;-12.46;18.89;4.34;-17.77;1
-8.36;-11.69;-12.27;20.05;-13.78;7.24;1
-9.59;-13.29;-10.47;20.33;-22.87;41.36;1
-8.78;-15.77;-7.29;28.66;-23;70.4;1
-8.22;-15.96;-5.67;60.12;-32.52;93.28;1
-5.63;-13.96;-8.05;88.5;-43.52;110.78;1
-3.17;-13.41;-9.9;92.56;-47.48;120.86;1
-1.62;-14.3;-11.02;87.91;-30.44;131.61;1
-0.62;-15.23;-12.12;76.27;-13.32;145.21;1
0.12;-16.61;-12.77;70.55;-19.5;153.76;1
0.53;-19.49;-12.54;73.69;-42.22;153.47;1
0.57;-19.55;-10.92;90.97;-49.51;154.9;1
1.24;-19.55;-9.61;112.87;-59.91;165.57;1
1;-19.3;-10.07;123.43;-66.94;169.3;1
1.1;-19.37;-10.82;122.72;-72.71;174.37;1
2.2;-18.83;-12.18;120.45;-48.1;176.86;1
3.7;-17.32;-12.65;117.42;-28.59;175.42;1
4.1;-15.83;-12.41;109.18;-25.45;163.6;1
4.56;-13.95;-11.53;102.31;-20.7;159.24;1
4.35;-12.44;-10.91;103.37;-11.55;158.19;1
4.4;-10.62;-10.34;102.35;-3.36;146.89;1
3.5;-8.97;-10.07;98.43;-11.99;133;1
1.95;-8.26;-10.21;93.87;-34;124.31;1
1.33;-7.51;-10.29;84.85;-51.68;118.44;1
0.73;-6.78;-10.39;77.3;-66.41;111.02;1
0.9;-6.28;-10.62;69.45;-74;103.63;1
1.74;-5.75;-11.05;64.48;-84.76;92.99;1
2.8;-4.82;-11.76;59.79;-90.68;75.31;1
3.51;-3.9;-12.58;51.87;-88.6;59.02;1
3.82;-3.39;-12.67;39.73;-87.17;44.02;1
3.56;-2.99;-12.19;27.44;-92.16;29.79;1
2.78;-2.68;-11.5;17.74;-99.94;17.08;1
1.37;-2.15;-11.04;10.53;-98.13;7.39;1
0.77;-1.95;-9.79;4.72;-84.28;3.34;1
-0.38;-1.67;-8.59;-6.01;-65.37;-1.15;1
-2.4;-1.75;-6.82;-20.75;-50.48;-6.43;1
-4.72;-2.16;-5.08;-35.96;-38.97;-11.72;1
-7.62;-3.45;-2.63;-45.53;-20.19;-11.54;1
-10.62;-5.25;-1.12;-46.25;10.97;-8.5;1
-10.64;-5.61;-2.56;-46.66;34.35;-9.33;1
-7.79;-4.85;-5.6;-45.21;51.06;-16.72;1
-5.18;-4.46;-8.53;-36.31;69.9;-30.3;1
-0.64;-4.16;-11.59;-32.82;98.19;-30.24;1
4.43;-3.12;-7.93;-57.88;105.74;-23.66;1
6.57;-5.44;0.61;-70.04;68.08;-36.3;1
-0.73;-14.54;-6.29;-31.96;86.3;-44.82;1
-6.1;-19.38;-15.88;-28.33;115.41;-50.24;1
-2.98;-19.55;-14.98;-74.43;67.11;-42.49;1
0.16;-19.55;-9.33;-73.73;30.26;-27.19;1
1.42;-15.71;-9.96;-18.75;13.33;-4.66;1
5.69;-5.94;-10.65;-13.5;-37.42;0.26;1
8.11;-2.64;-11.83;-37.28;-8.1;-30.21;1
6.01;-3.94;-12.63;-52.45;41.41;-68.15;1
4.09;-7.38;-13.07;-67.21;61.78;-89.35;1
1.8;-10.55;-10.75;-81.48;66.81;-98.02;1
-0.07;-12.91;-7.86;-74.95;74.08;-103.26;1
-1.87;-16.07;-9.74;-50.25;70.84;-107.53;1
-1.84;-16.65;-11.73;-45.12;51.17;-106.04;1
-1.42;-15.15;-12.31;-57.97;46.04;-100.35;1
-1.61;-13.2;-12.03;-63.98;48.57;-91.46;1
-2.56;-11.86;-11.67;-64.15;41.58;-84.4;1
-2.42;-10.86;-11.92;-65;37.32;-76.92;1
-2.2;-9.89;-11.7;-67.89;29.05;-74.84;1
-1.89;-8.88;-11.79;-70.12;14.38;-80.46;1
-1.61;-8.76;-11.73;-74.67;-8.74;-92.93;1
-0.12;-7.98;-11.65;-78.07;-19.81;-105.01;1
1.39;-8.45;-11.77;-77.06;-26.55;-116.96;1
2.74;-9.11;-11.65;-75.18;-30.81;-127.33;1
3.44;-10.78;-12.12;-79.86;-23.42;-137.85;1
3.75;-12.12;-12.6;-91.4;10.51;-142.7;1
2.99;-13.08;-12.27;-104.48;45.66;-139.92;1
2.28;-12.32;-11.03;-112.1;75.05;-127.72;1
2.01;-11.54;-9.41;-100.74;89.54;-120.26;1
1.85;-12.09;-9.44;-75.56;98.74;-126.13;1
-0.09;-12.11;-11.23;-56.51;99.54;-143.3;1
-5.16;-12.72;-12.12;-53.17;107.87;-149.7;1
-9.88;-13.74;-11.97;-59.8;120.38;-142.08;1
-12.54;-12.18;-7.63;-58.15;121.19;-119.18;1
-14.26;-11.65;-3.76;-16.37;103.42;-89.5;1
-15.46;-9.55;-5.42;26.31;84.06;-62.47;1
-14.83;-6.99;-7.65;39.53;60.18;-35.33;1
-14.99;-6.35;-9.15;40.57;29.46;-0.44;1
-14.31;-7.68;-9.22;42.3;25.13;34.67;1
-11.76;-9.18;-6.78;52.85;32.08;61.58;1
-9.36;-11.25;-6.12;82.95;9.31;80.22;1
-7.77;-12.9;-8.66;101.41;-35.42;100.76;1
-6.02;-13.74;-10.7;103.25;-79.88;129.89;1
-4.24;-13.62;-11.43;95.14;-103.64;163.72;1
-2.41;-15.57;-12.83;81.83;-117.83;184.84;1
-0.03;-19.55;-12.74;63.6;-111.81;185.84;1
3.27;-19.55;-9.97;57.34;-63.37;175.05;1
5.95;-19.55;-9.92;96.51;-25.28;160.48;1
6.46;-19.55;-12.22;132.36;-40.06;145.46;1
4.77;-17.84;-13.81;132.34;-70.49;138.96;1
1.59;-17.3;-14.83;116.27;-79.35;143.55;1
-0.85;-17.27;-15.08;91.52;-62.66;158.76;1
1.06;-19.38;-14.7;60.06;-27.86;162.3;1
2.56;-14.54;-11.34;60.69;-11.73;162.04;1
3.6;-12.33;-9.37;75.88;-19.91;160.5;1
3.91;-10.72;-9.1;87.06;-32.21;156.54;1
3.33;-9.65;-9.11;89.5;-39.17;146.85;1
2.02;-8.13;-8.88;85.27;-65.36;141.7;1
2.25;-7.45;-8.98;83.3;-87.22;140.89;1
3.53;-6.51;-9.23;83.17;-105.62;134.41;1
4.12;-5.25;-9.71;85.28;-114.36;123.53;1
4.56;-4.27;-10.42;82.59;-109.54;107.1;1
4.67;-3.2;-10.93;74.45;-92.42;91.15;1
4.57;-2.33;-11.35;64.09;-74.8;73.38;1
4.89;-1.35;-11.41;51.45;-57.52;58.07;1
4.44;-0.93;-11.45;39.32;-49.62;40.06;1
3.63;-0.74;-11.8;27.54;-44.98;25.18;1
3.21;-1.19;-12.16;12.94;-39.84;9.62;1
2.38;-1.01;-12.62;-2.86;-35.04;-13.6;1
1.31;-1.44;-12.47;-22.79;-28.28;-27.63;1
0.79;-1.55;-12.4;-41.88;-22;-39.67;1
-0.32;-2.2;-11.58;-60.37;-14.07;-42.9;1
-0.44;-2.67;-10.28;-78.44;-13.51;-57.85;1
-2.37;-4.37;-8.53;-89.53;-27.74;-70.23;1
-4.42;-6.74;-6.42;-100.28;-53.21;-81.11;1
-6.73;-9.86;-4.7;-108.44;-74.35;-76.8;1
-9.03;-13.45;-3.62;-118.89;-63.5;-68.43;1
-11.4;-18.22;-0.99;-116.97;-15.2;-50.27;1
-11;-19.55;0.94;-83.73;21.52;-34.5;1
-9.77;-19.55;-2.47;-49.32;54.12;-27.44;1
-8.63;-13.93;-7.37;-20.88;136.03;-6.58;1
-3.7;-9.18;-10.97;-14.68;191.36;12.92;1
3.78;-9.38;-12.7;-60.54;132.96;18.63;1
13.53;-19.55;-12.3;-126.83;38.99;-19.57;1
4.87;-19.55;4.62;-55.3;26.05;-42.68;1
-2.92;-19.55;-2.69;51.09;17.82;-3.72;1
-1.74;-10.52;-11.81;60.24;-20.92;35.48;1
4.17;-4.05;-16.22;35.44;-22.14;65.31;1
11.1;2.86;-14.37;-18.51;0.16;53.4;1
14.31;3.76;-12.03;-55.79;69.79;-0.45;1
12.04;-0.99;-12.02;-57.06;127.5;-72.6;1
6.66;-5.9;-10.99;-49.92;138.03;-108.03;1
2.73;-9.11;-8.45;-45.99;133.83;-122.53;1
-2.01;-12.12;-8.12;-21.38;136.08;-124.92;1
-5.44;-12.95;-11.06;3.79;96.35;-121.1;1
-8.29;-14.55;-13;2.37;46.92;-104.17;1
-8.61;-14.41;-14.03;-17.08;24.34;-77.01;1
-7.11;-12.71;-14.03;-39.32;19.51;-54.04;1
-4.92;-10.68;-13.59;-51.5;-8.07;-46.4;1
-3.13;-8.61;-12.82;-57.33;-36.97;-49.95;1
-1.6;-7.36;-12.34;-57.63;-47.8;-58.99;1
-0.03;-6.6;-11.89;-57.09;-47.84;-72.01;1
2.3;-6.63;-12.2;-64.58;-41.31;-88.48;1
3.1;-7.86;-12.33;-80.11;-32.25;-102.89;1
3.42;-9.34;-12.31;-96.15;-10.6;-110.72;1
3.32;-10.74;-11.96;-106.23;11.33;-110.59;1
3.26;-11.59;-11.79;-110.02;32.34;-107.51;1
2.87;-11.83;-11.87;-102;48.03;-103.74;1
2.99;-12.01;-12.83;-94.44;68.65;-106.65;1
3.64;-13.92;-13.23;-97.55;87.83;-121.21;1
2.49;-14.96;-12.57;-111.63;104.99;-141.37;1
-2.64;-16.75;-10.72;-106.92;117.68;-134.79;1
-7.19;-17.15;-8.36;-73.23;130.99;-115.65;1
-8.69;-14.28;-7.21;-24.49;126.43;-105.25;1
-12.23;-13.35;-8.35;1.7;110.27;-95.56;1
-15.9;-11.31;-8.05;2.11;81.18;-71.46;1
-17.59;-9.85;-7.3;7.75;60.09;-32.98;1
-15.72;-10.08;-5.31;25.59;36.54;5.83;1
-13.27;-10.45;-2.86;51.79;34.87;26.18;1
-10.82;-9.29;-2.43;80.09;38.32;47.81;1
-8.36;-8.25;-5.27;100.58;34.9;62.26;1
-6.68;-8.29;-8.99;107.08;18.19;80.33;1
-6.02;-8.8;-11.17;100.24;-29.23;107.67;1
-6;-10.22;-12.15;87.4;-126.83;150.76;1
-6.19;-14.62;-13.67;78.82;-223.34;181.34;1
-6.54;-19.55;-14.25;60.41;-206.16;176.54;1
-3.41;-19.55;-13.22;50.62;-127.76;162.71;1
0.07;-19.55;-10.87;77.3;-79.79;159.41;1
3.39;-19.55;-9.82;122.36;-103.14;162.97;1
5.93;-19.55;-11.8;138.31;-126.63;170.79;1
5.94;-18.67;-13.6;135.6;-110.79;174.37;1
8.47;-19.55;-16.63;128.67;-52.15;171.28;1
11.11;-19.47;-16.56;107.01;34.76;136.73;1
7.25;-11.33;-12.8;101.05;38.89;118.15;1
4.69;-9.29;-10.98;100.67;33.25;127.31;1
4.18;-8.54;-10.18;98.98;36.9;133.84;1
3.1;-7.37;-9.97;91.47;25.03;127.26;1
1.23;-6.17;-9.67;83.55;8.05;126.1;1
-0.49;-5.7;-9.59;74.78;-24.9;129.67;1
-0.26;-6.08;-10.01;68.42;-62.74;136.28;1
1;-5.31;-10.53;63.43;-94.18;135.39;1
2.3;-5.12;-11.41;58.27;-109.27;127.33;1
4.03;-4.79;-12.24;49.81;-106.86;110;1
5.4;-4.65;-13.02;36.95;-92.52;80.93;1
6.24;-3.91;-13.17;21.94;-74.48;43.62;1
5.88;-2.58;-12.82;8.31;-62.95;4.72;1
5.23;-1.72;-12.76;-4.9;-55.94;-27.4;1
4.94;-0.87;-13.16;-21.09;-45.84;-51.88;1
3.81;-0.32;-12.74;-37.18;-28.68;-69.33;1
2.69;-0.42;-11.72;-49.47;-1.01;-79.98;1
1.17;-0.38;-9.27;-60.81;16.88;-93.3;1
-1.18;-1.32;-6.31;-76.02;13.54;-100.43;1
-4.37;-4.29;-2.91;-88.05;2.7;-98.79;1
-7.56;-8.16;0.81;-78.89;-0.06;-88.87;1
-11.35;-12.15;-0.79;-59.44;16.75;-62.57;1
-14.93;-15.03;-3.26;-56.11;-15.62;-32.46;1
-17.53;-19.55;-3.32;-62.76;-46.89;15.07;1
-14.72;-19.55;-1.28;-43.67;11.59;62.53;1
-8.33;-14.08;-4.34;-1.99;112.79;75.05;1
-4.25;-7.87;-7.67;18.71;193.09;82.23;1
5.53;-3.77;-9.6;-28.94;200.29;73.14;1
15.53;-12.84;-6.17;-107.55;119.56;25;1
5.73;-19.55;-0.3;-16.4;120.46;-20.43;1
-3.97;-19.55;-7.17;79.07;22.44;1.48;1
-1.81;-9.36;-12.33;73.44;-16.59;33.02;1
1.27;-2.88;-16.35;61.51;-9.51;56.93;1
5.12;1.26;-16.18;34.88;-33.46;44.23;1
6.8;5.49;-15.05;-14.11;19.7;4.41;1
5.09;0.85;-14.75;-52.23;45.03;-47.21;1
1.92;-6.88;-13.57;-62.73;45.87;-76.21;1
2.74;-14.37;-11.56;-70.82;49.23;-98.44;1
0.05;-19.55;-8.71;-56;46.83;-130.8;1
-4.5;-19.55;-8.99;-17.11;19.11;-133.09;1
-5.39;-19.55;-10.94;-8.15;-10.88;-93.01;1
-3.89;-13.6;-11.98;-21.99;4.98;-54.3;1
-0.22;-10.37;-12.66;-40.6;21.7;-40.85;1
2.03;-9.42;-12.28;-56.65;40.39;-49.65;1
1.68;-10.16;-11.67;-63.77;44.64;-66.66;1
0.14;-11.3;-11.8;-63.17;44.83;-81.99;1
-0.65;-11.4;-11.49;-55.63;47.3;-94.79;1
-0.75;-10.48;-11.51;-51.21;38.12;-103.34;1
-0.63;-9.44;-11.94;-52.43;31.24;-112.19;1
-0.84;-9.37;-12.51;-55.69;14.61;-119.22;1
-0.53;-9.71;-13.4;-64.97;-2.4;-122.76;1
0.11;-11;-14.27;-81.8;-7.61;-124.98;1
1.3;-13.14;-14.96;-101.77;-3.28;-129.79;1
2.78;-14.54;-13.74;-119.73;9.8;-134.78;1
4.23;-15.5;-11.14;-118.21;29.47;-150.22;1
1.97;-16.08;-10.05;-97.76;40.32;-159.77;1
-0.2;-14.18;-10.4;-89.24;58.41;-149.68;1
-2.57;-13.88;-11.48;-99.44;76.43;-147.9;1
-4.13;-12.87;-10.75;-114.76;86.33;-143.59;1
-2.18;-13.34;-5.41;-125.13;55.31;-139.75;1
-3.25;-15.15;2.44;-70.12;52.56;-147.39;1
-8.46;-13.38;-0.42;-2.34;132.38;-135.01;1
-12.98;-10.14;-6.02;34.81;152.1;-115.4;1
-15.93;-6.96;-8.34;39.7;119.06;-82.11;1
-17.08;-4.93;-8.08;29.51;84.15;-38.19;1
-16.69;-4.87;-6.7;34.09;59.61;3.76;1
-13.69;-6.07;-5.63;60.35;44.14;20.54;1
-12.64;-6.4;-6.91;82.05;29.22;50.76;1
-11.91;-7.83;-8.16;95.13;1.33;81.12;1
-11.94;-10.28;-10.02;101.3;-40.97;116.68;1
-11.17;-11.93;-12.19;98.47;-93.48;155.19;1
-9.46;-13.25;-13.17;87.84;-150.04;191.67;1
-6.16;-16.21;-13.96;70.56;-167.98;211.34;1
-2.37;-19.55;-14.13;53.82;-145.53;211.48;1
3.41;-19.55;-15.21;34.29;-98.82;182.2;1
4.8;-19.55;-9.88;62.19;-49.75;161.63;1
5.91;-19.55;-8.74;135.77;-116.01;184.61;1
7.7;-19.55;-11.11;143.57;-158.46;195.14;1
7.49;-19.55;-12.93;135.91;-147.79;194.33;1
13.14;-19.55;-14.86;127.43;-42.53;159.95;1
11.42;-14.37;-13.77;125.86;17.04;119.5;1
6.83;-9.2;-13.15;109.17;17.99;106.84;1
4.75;-8.27;-13.07;96.59;41.35;114.81;1
3.68;-7.51;-12.36;82.9;36.34;110.89;1
1.6;-5.91;-11.75;68.26;8.94;108.7;1
-0.08;-5.48;-11.08;55.98;-24.36;114.79;1
0.85;-5.54;-10.67;45.27;-61.42;119.4;1
2.49;-5.09;-10.37;34.95;-94.75;115.28;1
4;-4.7;-10.51;26.47;-111.97;107.05;1
5.56;-4.19;-11.18;19.54;-107.16;90.73;1
6.25;-3.41;-11.72;10.75;-89.44;68.74;1
6.91;-2.23;-12.46;-1.85;-68.02;40.97;1
6.21;-0.98;-12.48;-17.89;-50.15;13.67;1
5.62;-0.54;-12.39;-36.17;-33.71;-9.05;1
4.83;-0.47;-11.5;-47.05;-16.64;-29.58;1
3.8;-1.18;-10.3;-51.72;-2.11;-54.28;1
1.33;-2.41;-8.58;-48.2;3.5;-72.04;1
-1.83;-4.05;-6.5;-45.68;-18.66;-79.23;1
-5.73;-6.12;-4.09;-52.08;-70.09;-79.76;1
-9.93;-9.99;0.89;-44.73;-116.42;-70.94;1
-15.41;-14.09;1.74;-32.63;-74.15;-55.22;1
-19.7;-18.87;-0.43;-47.36;30.7;-2.35;1
-16.91;-19.49;-3.72;-54.75;77.34;41.61;1
-11.41;-18.36;-2.46;-18.38;93.69;59.86;1
-10.49;-12.82;-11.14;21.45;184.28;83.5;1
-4.24;-7.45;-13.83;10.05;227.41;113.79;1
8.83;-5.61;-13.28;-54.89;128.38;102.03;1
19.52;-16.57;0.29;-76.28;9.84;28.45;1
6.64;-19.55;2.85;52.35;-33.46;-0.22;1
3.92;-16.52;-10.45;108.95;-68.13;1.02;1
3.13;-5.42;-19.77;67.79;-21.33;14.8;1
1.95;-1.91;-17.67;-2.11;7.94;26.83;1
6.66;0.08;-16.99;-58.77;31.8;4.79;1
7.36;-1.13;-12.62;-57.53;59.35;-30.92;1
5.44;-3.42;-9.62;-43.94;67.03;-66.53;1
3.35;-8.42;-9.87;-38.38;66.8;-91.31;1
0.98;-12.6;-11.48;-47.35;76.3;-110.76;1
-2.88;-15.82;-10.18;-48.36;73.92;-122.17;1
-5.57;-18.65;-9.11;-34.99;49.25;-104.43;1
-4.46;-17.69;-10.86;-33;37.1;-76.66;1
-2.83;-13.04;-11.87;-35.57;35.96;-61.77;1
-2.39;-9.99;-12.72;-39.11;33.96;-55.99;1
-1.9;-8.17;-13.65;-45.22;26.27;-65.01;1
-2.25;-7.8;-14.33;-60.31;5.19;-74.07;1
-2.72;-8.18;-13.82;-74.15;-14.06;-81.17;1
-2.54;-8.59;-12.34;-82.67;-26.72;-90.44;1
-1.56;-8.92;-10.86;-81.07;-35.53;-99.74;1
0.26;-9.49;-10.62;-73.05;-33.99;-109.03;1
1.22;-10.42;-12.08;-69.55;-36.35;-114.25;1
3.01;-11.39;-13.78;-78.74;-17.07;-116.29;1
4.75;-13.66;-15.5;-93.82;9.33;-122.01;1
5.85;-15.47;-15.9;-119.37;30.67;-131.99;1
6.13;-15.81;-14.34;-138.25;57.06;-145.2;1
4.45;-15.82;-10.72;-130.9;80.09;-157.98;1
0.56;-16.47;-9.44;-105.03;83.93;-162.78;1
-2.58;-15.1;-11.04;-91.07;91.89;-165.95;1
-7.2;-15.97;-12.12;-83.93;99.51;-162.89;1
-9.25;-16.02;-12.11;-81.6;110.63;-153.16;1
-7.88;-11.66;-8.8;-85.98;103.18;-133.85;1
-9.29;-9.75;-0.86;-70.77;72.56;-119.37;1
-15.04;-9.68;2.1;4.27;78.58;-87.25;1
-16.65;-8.72;-3.81;53.88;75.87;-49.01;1
-16.05;-7.87;-6.46;61.04;71.65;-3.78;1
-13.44;-8.16;-6.23;63.92;81.49;33.37;1
-11.24;-9.76;-5.97;92.45;82.46;53.25;1
-12.59;-10.41;-9.21;111.56;57.88;88.05;1
-12.08;-11.28;-12.11;108.23;-7.01;118.04;1
-10.18;-9.87;-11.66;83.21;-108.46;150.92;1
-8.63;-10.12;-11.94;61.46;-179.36;182.63;1
-8.71;-15.56;-12.34;42.66;-205.1;206.26;1
-5.45;-19.55;-11.54;30.66;-183.62;214.61;1
-0.08;-19.55;-9.65;58.79;-121.88;202.82;1
5.62;-19.55;-10.39;132.38;-84.3;172.49;1
7.26;-19.55;-12.85;175.94;-105.35;170.92;1
6.05;-19.55;-15.23;174.27;-155.24;179.54;1
9.1;-19.55;-18.99;150.56;-100.46;171.21;1
10.33;-17.82;-15.97;114.3;-4.72;133.99;1
7.88;-12.12;-11.22;108.05;47.78;137.92;1
6.2;-10.59;-9.3;108.91;53.58;134.77;1
6.49;-9.53;-10.28;110.63;68.58;126.39;1
5.08;-6.95;-10.94;99.76;44.62;114.56;1
3.17;-5.56;-10.97;86.17;8.41;111.05;1
2.09;-5.19;-11.15;72.37;-48.01;105.22;1
1.66;-4.61;-11.09;65.34;-101.25;101.35;1
1.41;-3.96;-11.33;66.78;-130.43;100.22;1
2.01;-3.57;-12.17;68.75;-134.68;92.44;1
3.38;-2.82;-13.72;62.63;-111.84;80.4;1
4.84;-2.13;-15.31;43.59;-76.34;62.62;1
6.47;-1.42;-15.99;15.37;-37.82;38.61;1
7.53;-0.19;-15.53;-14.95;-3.04;10.76;1
7.79;0.26;-15;-40.03;33.23;-16.56;1
7.09;0.08;-12.9;-59.56;54.64;-49.84;1
3.05;-0.64;-9.82;-58.6;59.87;-74.7;1
-0.64;-1.77;-5.34;-46.15;31.48;-85.93;1
-5.4;-2.23;-0.91;-35.63;-55.24;-85.94;1
-10.78;-6.65;4.38;-12.08;-164.88;-74.56;1
-18.61;-10.41;-1.81;13.84;-184.17;-57.5;1
-19.7;-10.55;-10.13;-27.11;-104.06;-19.08;1
-19.7;-13.55;-5.44;-80.75;27.38;82.37;1
-12.42;-13.64;-0.44;-70.92;66.67;86.2;1
-8.34;-15.04;1.83;0.78;140.13;68.06;1
-8.33;-17.76;0.65;41.44;155.55;88.26;1
4.15;-19.55;-4.49;22.08;128.45;101.63;1
17.05;-19.55;-12.71;8.79;12.54;48.44;1
13.26;-15.35;-11.2;50.95;-149.1;64.41;1
13.11;-0.11;-10.11;46.12;-119.68;71.05;1
8.68;0.85;-17.92;61.75;26.11;47.05;1
5.61;5.79;-17.51;28.94;96.55;13.15;1
5.53;5.68;-18.78;-32.27;70.28;-12.93;1
3.65;1.85;-14.73;-99.89;104.09;-46.07;1
0.29;-8.31;-7.87;-84.79;109.04;-76.4;1
-2.43;-15.22;-6.09;-54.46;65.68;-81.31;1
-3.99;-19.52;-8.83;-43.47;26.6;-98.9;1
-7.34;-19.55;-10.43;-30.23;0.12;-96.63;1
-7.63;-19.55;-9.97;-23.71;-12.62;-56.5;1
-2.84;-14.39;-11.2;-25.67;-10.55;-22.32;1
1.31;-8.64;-11.3;-35.34;-17.23;-23.09;1
2.17;-6.36;-12;-46.28;-9.83;-33.07;1
2.08;-5.91;-11.92;-62.33;12.61;-47.38;1
0.3;-7.35;-12.01;-75.96;28.63;-64.66;1
-1.29;-9.97;-11.26;-79.69;29.39;-84.66;1
-2.75;-12.38;-9.69;-73.54;24.38;-95.78;1
-2.97;-13.75;-9.55;-66.62;5.35;-99.12;1
-1.65;-13.78;-11.02;-67.96;-12.77;-105.19;1
-0.54;-14.35;-11.81;-71.78;-20.29;-109.2;1
-0.39;-14.35;-12.2;-77.87;-12.21;-105.75;1
0.28;-14.29;-12.16;-86.7;4.44;-105.92;1
0.95;-14.06;-12.18;-93.66;15.05;-110.59;1
1.6;-14.38;-12.06;-98.77;28.81;-124.58;1
1.99;-14.57;-12.14;-105.86;60.99;-129.37;1
1.46;-15.34;-11.47;-110.16;85.76;-143.22;1
0.14;-16.54;-10.98;-108.43;92.04;-159.38;1
-2.41;-17.43;-10.69;-100.56;91.37;-166.87;1
-6.49;-17.78;-10.2;-91.76;82.18;-162.21;1
-10.18;-17.95;-9.51;-78.53;94.75;-151.61;1
-12.24;-15.08;-7.01;-56.95;122.61;-140.3;1
-11.74;-11.47;-4.19;-33.79;127.88;-128.85;1
-13.49;-8.51;-1.48;-4.57;111.03;-109.97;1
-16.47;-6.34;-1.93;32.54;90.06;-80.39;1
-16.38;-4.77;-4.76;61.69;79.36;-44.54;1
-14.86;-3.61;-6.99;70.37;49.95;-3.43;1
-12.77;-3.28;-8.35;64.08;13.9;40.79;1
-11.74;-5.11;-9.69;58.82;-50.08;90.1;1
-11.37;-9.83;-11.83;59.24;-135.05;142.49;1
-10.51;-13.53;-12.85;56.34;-204.66;177.6;1
-8.82;-19.35;-12.94;31.62;-172.71;175.32;1
-4.09;-19.55;-10.8;15.33;-124.25;167.31;1
0.15;-19.55;-7.95;59.58;-90.01;150.22;1
3.08;-19.55;-8.86;126.19;-120.75;145.66;1
4.71;-19.55;-12.9;149.82;-158.08;162.37;1
5.29;-17.76;-15.33;145.01;-140.72;171.67;1
9.09;-19.55;-17.73;123.21;-56.04;166.58;1
10.66;-16.72;-15.11;98.13;26.99;114.74;1
7.89;-10.6;-11.21;102.12;62.75;114.56;1
6.38;-8.77;-9.43;106.08;72.69;119.99;1
6.2;-7.78;-9.43;104;82.45;110.9;1
3.82;-6.02;-9.8;93.18;64.67;100.83;1
0.77;-5.36;-10.36;79.53;25.13;97.13;1
-0.7;-4.92;-10.8;67.97;-18.29;100.94;1
-0.24;-4.15;-11.09;63.08;-61.44;104.01;1
0.51;-3.18;-11.34;62.71;-92.84;102.27;1
0.93;-2.82;-12.08;60.92;-109.53;96.22;1
1.88;-2.54;-13.04;53.42;-108.17;86.1;1
3.48;-2.77;-14.2;35.77;-91.78;73.76;1
5.83;-3.17;-15.13;9.3;-61.58;47.41;1
7.22;-3.53;-15.22;-16.9;-35.97;10.12;1
6.24;-3.29;-14.12;-38.19;-26.1;-22.61;1
5.81;-3.15;-12.26;-50.98;-22.1;-49.43;1
4.75;-3.38;-9.9;-52.54;-21.29;-69.53;1
3.52;-3.33;-6.68;-40.37;-23.97;-86.86;1
0.1;-4.37;-4.05;-23.75;-44.07;-94.82;1
-4.1;-5.01;-1.91;-12.85;-74.79;-94.75;1
-8.77;-8.06;0.45;7.09;-96.12;-87.39;1
-14.83;-9.89;-3.78;9.78;-77.95;-74.72;1
-19.7;-12.83;-2.95;-25.95;-12.13;-25.14;1
-19.17;-16.93;0.16;-38.4;53.45;60.19;1
-9.43;-13.74;-2.78;-35.6;18.57;70.69;1
-3.9;-11.49;-4.59;-17.14;23.47;48.6;1
-4.49;-10.23;-8.11;6.06;109.38;52.51;1
-0.23;-10.88;-10.96;0.25;184.84;60.75;1
10.63;-18.89;-10.98;-49.39;207.87;26.27;1
10.1;-19.55;-2.49;-49.63;246.81;-7.82;1
3.16;-19.55;-3.32;48.21;141.64;53.13;1
7.14;-6.14;-13.9;77.87;11.09;67.4;1
8.82;3.21;-16.62;37.46;4.73;61.8;1
5.97;4.5;-17.92;-2.86;11.62;40.13;1
3.59;4.36;-15.06;-34.18;68.12;2.92;1
3.08;-0.43;-10.97;-45.86;58.11;-45.85;1
4.15;-6.3;-7.11;-36.83;47.05;-77.29;1
2.26;-13.93;-6.81;-27.33;52.26;-112.53;1
-0.55;-19.55;-10.77;-25.79;38.58;-149.45;1
-6.18;-19.55;-11.51;-20.01;7.4;-155.24;1
-8.32;-19.55;-12.12;-7.31;-13.14;-105.64;1
-4.8;-14.81;-13.18;-12.7;-3.05;-48.99;1
-1.08;-9.64;-13.15;-29.52;-4.72;-35.42;1
0.66;-6.96;-12.77;-49.58;-4.17;-43.4;1
0.74;-7.13;-12.69;-68.6;-1.97;-59.68;1
-0.26;-7.93;-12.9;-78.25;3.64;-75.3;1
-0.13;-8.56;-12.83;-80.75;7.39;-93.91;1
-0.34;-9.45;-12.11;-81.36;6.68;-111.61;1
-0.44;-10.73;-12;-84.83;5.39;-126.22;1
-0.68;-12.53;-11.24;-85.83;-3.94;-135.74;1
-0.52;-13.41;-11.19;-86.21;-17.97;-135.83;1
0.7;-14.43;-12.13;-85.77;-15.64;-132.37;1
1.75;-14.71;-13.2;-88.86;-3.75;-130.44;1
3.01;-15.13;-13.77;-101.6;5.94;-137.06;1
3.3;-15.21;-13.32;-119.44;35.85;-146.29;1
1.69;-15.04;-11.87;-134.56;65.37;-153.72;1
-2.11;-17.71;-10.08;-131.64;84.47;-148.3;1
-4.84;-19.55;-7.8;-112.14;99.77;-131.15;1
-8.49;-18.66;-6.08;-69.81;117.03;-118.63;1
-10.07;-14.63;-3.87;-26.75;159.16;-111.72;1
-11.34;-10.44;-0.88;2.02;144.41;-86.95;1
-13.69;-8.73;0.56;38.63;119.38;-60.88;1
-15.07;-6.53;-1.61;66.11;120.84;-30.69;1
-13.71;-4.95;-5;73.82;109.65;9.08;1
-12.08;-5.12;-8.07;76.61;66.3;44.37;1
-10.56;-5.65;-10.28;80.09;-13.53;74.34;1
-9.14;-6.27;-11.68;80.66;-98.77;105.18;1
-8.61;-8.51;-12.88;78.58;-174.04;135.7;1
-9.89;-13.82;-13.61;63.66;-183.84;150.5;1
-9.93;-19.55;-13.44;24.9;-119.65;149.09;1
-4.39;-19.55;-10.12;14.37;-73.68;161.32;1
0.24;-19.12;-8.36;68.2;-83.52;148.63;1
2.45;-19.55;-10.52;126.79;-109.87;137.73;1
3.89;-18.88;-13.34;142.13;-127.46;147.82;1
3.34;-18.05;-15.5;132.58;-135.04;159.16;1
3.82;-18.91;-16.89;114.48;-114;175.87;1
9;-19.55;-18.38;82.46;-30.37;154.67;1
6.66;-13.3;-10.96;81.67;-6.19;139.12;1
7.63;-10.86;-9.29;92.45;14.25;145.02;1
7.38;-9.78;-9.66;93.6;21.18;129.45;1
5.55;-8;-10.38;86.72;20.3;118.54;1
2.78;-6.44;-11.09;73.65;12.82;121.62;1
1.62;-5.74;-11.55;58.86;-3.48;122.44;1
1.43;-4.8;-11.2;48.3;-26.31;125.67;1
2.59;-4.09;-10.93;43.65;-54.55;116.37;1
2.78;-3.07;-10.84;43.44;-76.34;103.5;1
2.74;-2.19;-11.39;43.05;-91.55;89.91;1
2.89;-1.74;-12.19;34.43;-99.81;75.91;1
3.08;-1.85;-12.53;19.29;-99.37;61.21;1
3.98;-2.18;-12.5;2.91;-98.36;40.4;1
4.69;-3.12;-11.73;-7.63;-85.99;19.44;1
4.78;-3.93;-10.16;-10.32;-77.61;-2.03;1
3.28;-4.81;-7.79;-2.72;-76.08;-15.76;1
0.87;-5.55;-6.11;10.3;-79.79;-23.13;1
-2.08;-6.11;-4.58;20.13;-91.2;-26.89;1
-5.46;-6.61;-3.46;24.56;-104.53;-29.42;1
-9.37;-7.28;-3.24;22.69;-100.17;-21.08;1
-12.08;-7.8;-4.48;2.5;-58.79;-1.87;1
-10.56;-7.82;-5.27;-24.23;0.87;19.54;1
-7.77;-7.45;-6.68;-42.83;19.75;4.86;1
-5.94;-8.63;-5.45;-45.25;30.42;-1.53;1
-4.71;-8.67;-6.12;-41.13;73.93;-11.6;1
-4.09;-9.29;-7.6;-32.92;151.01;-9.07;1
-1.29;-10.44;-7.39;-40.31;166.81;7.94;1
5.8;-15.18;-2.43;-55.87;137.78;15.6;1
5.68;-19.55;2.5;-16.68;141.27;-8.86;1
-0.29;-19.55;-7.64;56.7;123.67;0.98;1
-1.5;-13.74;-18.43;76.82;9.12;50.49;1
3.94;0.29;-17.55;-2.32;-15.27;83.36;1
8.64;2.75;-13.16;-38.26;21.17;78.86;1
11.32;5.28;-9.98;-34.79;99.21;15.32;1
7.72;3.09;-11.58;-17.02;124.16;-59.41;1
3.17;-1.92;-13.06;-22.63;111.25;-88.15;1
1.53;-7.91;-13.39;-42.95;107.31;-108.7;1
-2.03;-15.15;-10.52;-60.76;87.67;-125.53;1
-6.79;-18.94;-9.45;-42.84;55.99;-129.72;1
-8.88;-19.55;-10.62;-18.46;16.34;-100.33;1
-6.88;-19.45;-12.81;-13.68;13.06;-55.58;1
-4.02;-13.36;-12.79;-25.86;24.23;-31.85;1
-2.34;-8.6;-12.54;-37.85;28.62;-27.49;1
-0.4;-7.02;-12.29;-55.91;26.47;-33.13;1
-0.55;-7.19;-11.95;-67.62;22.71;-44.04;1
-0.55;-7.84;-12.17;-71;27.74;-56.32;1
-1.07;-8.56;-12.02;-74.86;30.35;-72.67;1
-1.42;-9.8;-11.47;-77.84;26.49;-91.24;1
-1.59;-11.37;-10.6;-77.61;8.3;-100.37;1
-1.61;-12.5;-9.95;-68.7;-19.38;-106.8;1
-1.65;-12.53;-9.76;-58.63;-39.08;-108.56;1
-1.22;-12.55;-10.63;-59.65;-46.19;-109.37;1
-0.77;-12.88;-11.31;-66.42;-44.58;-110.04;1
0.51;-13.18;-12.03;-73.37;-32.13;-110.49;1
2.3;-13.21;-12.28;-81.32;-8.66;-114.85;1
3.58;-12.76;-11.86;-90.46;27.41;-119.69;1
4.09;-12.94;-10.97;-93.87;62.88;-134.6;1
2.79;-14.28;-10.86;-93.59;87.04;-152.79;1
-0.34;-15.61;-10.89;-94.41;107.51;-159.84;1
-4.44;-18.39;-10.52;-90.34;112.17;-151.77;1
-7.76;-19.55;-9.65;-75.83;112.94;-134.94;1
-10.21;-16.88;-7.56;-42.18;121.8;-124.6;1
-10.86;-11.12;-5.63;-7.94;130.24;-123.85;1
-13.39;-7.51;-4.87;16.12;109.75;-105.75;1
-16.81;-5.44;-5.08;37.21;78.13;-76.24;1
-17.82;-4.75;-6.38;57.31;59.2;-46.43;1
-16.14;-3.9;-6.95;62.02;35.83;1.27;1
-13.52;-3.96;-7.55;55.37;-1.29;49.43;1
-11.18;-5.46;-8.86;49.92;-57.01;93.7;1
-9.92;-9.52;-10.47;49.56;-127.97;132.18;1
-9.33;-14.05;-12.01;50.6;-202.12;163.18;1
-7.07;-19.51;-13.38;40.79;-186.71;163.44;1
-2.34;-19.55;-12.62;34.87;-117.48;146.99;1
1.25;-18.62;-10.87;53.21;-64.7;136.31;1
2.92;-18.58;-9.63;91.81;-62.47;134.41;1
4.27;-19.55;-10.9;120.28;-101.34;151.8;1
4.34;-18.84;-13.65;122.38;-107.17;160.11;1
2.61;-18.85;-15.11;117.13;-99.01;164.6;1
3.33;-19.55;-16.08;101.89;-70.04;163.08;1
5.96;-18.53;-13.78;92.4;-18.62;140.86;1
4.68;-13.01;-10.03;98.55;-5.94;135.37;1
6.03;-12.17;-9.8;99.75;15.16;133.57;1
6.19;-10.24;-10.29;91.76;29.69;123.82;1
4.34;-9.05;-11.07;81.47;23.72;111.93;1
2.57;-7.35;-11.77;70.72;8.36;108.6;1
2.21;-6.49;-12.07;58.63;-9.49;107.34;1
2.99;-4.95;-11.51;48.24;-29.49;96.32;1
3.3;-3.67;-11.22;43.11;-50.71;82.15;1
3.44;-2.35;-11.09;37.89;-69.04;64.5;1
3.57;-1.57;-11.23;31.5;-79.24;49.51;1
3.39;-1.32;-11.69;23.76;-87.89;32.29;1
2.82;-1.23;-12.43;15.24;-99.01;17.6;1
2.47;-1.02;-12.86;7.69;-104.04;7.56;1
3.18;-0.38;-12.66;-0.76;-93.39;-2.47;1
3.9;-0.15;-12.27;-11.92;-75.82;-14.78;1
4;-1.09;-11.88;-26.02;-56.21;-24.25;1
2.87;-2.24;-10.77;-41.62;-45.94;-27.72;1
2.76;-3.16;-9.24;-57.66;-44.92;-36.72;1
1.25;-4.9;-6.84;-67.58;-49.28;-50.37;1
-1.2;-8.04;-4;-64.38;-57.75;-68.63;1
-4.73;-11.94;-4.85;-62.19;-45.3;-86.76;1
-11.41;-16.99;-5.46;-72.89;2.18;-88.82;1
-14.36;-19.55;-2.48;-68.97;44.16;-77.15;1
-15.37;-19.55;-2.88;-36.28;66.74;-30.7;1
-9.99;-13.7;-6.04;5.98;118.35;-1.48;1
-5.38;-9.44;-10.82;23.7;197.2;26.92;1
1.8;-7.96;-12.18;-18.28;229.47;55.63;1
10.76;-15.52;-14.57;-134.57;184.75;42.14;1
10.95;-19.55;-4.96;-212.99;115.29;33.34;1
-2.65;-19.55;9.54;5.44;133.99;50.66;1
0.09;-13.72;-8.9;124.83;77.47;39.13;1
0.92;-3.82;-17.25;109.21;47.2;40.28;1
3.11;2.57;-16.94;42.83;56.56;50.86;1
8.11;5.49;-14.12;-24.32;86.12;27.43;1
10.56;4.95;-11.35;-43.88;118.9;-22.13;1
6.7;-1.15;-11.12;-23.97;120.27;-71.55;1
1.57;-5.24;-12.04;-2.57;86.78;-96.21;1
-2.06;-8.54;-13.1;-1.53;59.04;-120.95;1
-6.74;-10.87;-13.99;-10.35;24.45;-136.46;1
-10.36;-14.96;-14.25;-26.94;-23.14;-123.59;1
-10.97;-17.47;-14;-45.44;-34.6;-80.16;1
-8.95;-15.83;-12.38;-48.92;-25.15;-34.82;1
-3.14;-10.36;-11.25;-43.79;-30.42;-19.3;1
0.3;-8.16;-11.83;-42.24;-38.43;-32.62;1
1.47;-7.58;-12.05;-47.37;-48.61;-50.07;1
1.84;-7.2;-12.04;-55.97;-44.8;-67.82;1
1.69;-7.71;-11.43;-62.36;-38.32;-82.27;1
2.05;-8.16;-10.98;-68.4;-28.59;-93.26;1
2.01;-8.58;-10.78;-68.31;-13.87;-96.21;1
1.92;-8.86;-11.4;-68.89;-5.75;-98.21;1
2.33;-8.79;-12.3;-71.74;5.2;-101.35;1
2.43;-9.81;-13.47;-75.48;17.6;-106.02;1
2.63;-11.2;-14.42;-83.63;26.12;-114.71;1
2.71;-13.49;-15.5;-93.97;29.31;-127.68;1
1.79;-15.74;-15.44;-106.94;21.64;-141.62;1
-0.07;-16.31;-13.83;-117.74;32.07;-143.84;1
-2.38;-15.48;-11.11;-113.35;66.29;-134.72;1
-3.9;-13.87;-7.91;-88.92;105.12;-131.4;1
-5.37;-13.12;-7.32;-61.96;115.09;-124.24;1
-7.83;-11.28;-7.97;-42.89;100.16;-115.14;1
-11.34;-10.24;-7.31;-25.77;77.93;-96.94;1
-14.86;-9.95;-4.89;0.11;60.34;-70.98;1
-17.5;-10.52;-3.47;37.26;40.84;-34.98;1
-15.81;-11.52;-4.82;70.28;23.02;-0.52;1
-14.88;-13.25;-7.59;86.08;4.02;29.71;1
-12.65;-13.07;-10.07;82.85;-38.55;62.03;1
-10.04;-13.07;-11.42;76.65;-100.67;90.71;1
-7.87;-12.18;-11.67;73.36;-142.17;120.44;1
-7.14;-13.63;-12.53;79.69;-165.14;147.48;1
-6.19;-17.64;-12.49;89.86;-143.68;165.75;1
-3.24;-19.55;-11.62;89.4;-82.81;174.05;1
0.96;-19.55;-11.03;97.98;-48.23;177.61;1
4.1;-19.55;-10.99;119.02;-55.46;176.99;1
5.08;-19.55;-11.58;133.12;-77.74;180.89;1
5.16;-19.55;-13.2;127.68;-60.77;178.05;1
5.57;-19.55;-14.23;125.05;-34.22;166.86;1
4.33;-19.55;-13.88;122.95;-8.94;158.44;1
2.77;-17.22;-12.26;119.27;-0.92;159.96;1
2.9;-14.78;-11.95;112.34;-1.9;167.2;1
4.06;-13.81;-12.15;103.96;-3.64;164.92;1
3.67;-12.66;-11.96;95.64;-18.31;151.48;1
3.52;-11.35;-12.05;92.29;-30.41;141.01;1
3.63;-10.22;-12.09;89;-35.61;133.64;1
5.05;-8.7;-12.72;79.39;-45.13;121.16;1
5.62;-6.94;-12.96;69;-50.76;104.21;1
6.38;-4.95;-13.24;56.2;-50.58;85.09;1
6.89;-3.34;-13.17;40.67;-51.08;61.96;1
7.48;-1.97;-13.3;24.62;-48.6;38.08;1
7.74;-0.63;-13.66;7.98;-39.66;15.6;1
7.41;0.57;-13.75;-9.53;-31.94;-5.55;1
4.74;2.16;-13.14;-32.96;-27.23;-24.01;1
4.63;2.66;-12.67;-54.87;-26.54;-55.3;1
3.53;2.59;-11.86;-74.08;-29.91;-82.42;1
3.06;2.44;-10.32;-94.79;-37.93;-99.4;1
3.34;0.5;-4.95;-106.66;-59.91;-115.33;1
-1.01;-3.68;-1.6;-78.95;-72.21;-132.19;1
-6.64;-7.15;-4.47;-55.14;-53.31;-149.88;1
-12.27;-9.16;-12.38;-82.96;-2.95;-160.02;1
-19.7;-13.74;-11.46;-140.1;72.19;-111.96;1
-18.82;-19.55;-3.46;-112.12;147.01;-34.26;1
-11.46;-19.18;-4.64;-37.78;202.9;1.54;1
-10.57;-12.77;-7.77;8.35;200.64;40.89;1
-1.96;-8.5;-9.92;-2.15;114;68.72;1
9.18;-19.55;-13.45;-84;18.2;55.54;1
19.52;-19.55;-6.21;-167.09;-110.01;-4.03;1
2.59;-19.55;9.54;1.09;23.74;-18.63;1
-3.21;-17.74;-6.17;120.79;70.96;-25.56;1
-3.15;-8.65;-18.31;120.07;47.49;-0.68;1
0.4;1.25;-19.2;73.53;58.96;51.18;1
10.17;4.25;-19.68;4.44;58.31;64.73;1
13.73;7.76;-17.83;-45.92;66.84;34.78;1
12.92;4.1;-17.08;-47.49;116.61;-29.4;1
7.4;-1.25;-14.92;-31.85;124.71;-82.26;1
1.9;-6.09;-13.77;-25.91;131.96;-112.04;1
-3.08;-12.33;-13.62;-39.7;80.8;-137.18;1
-5.15;-18.85;-14.69;-73.71;-32.32;-161.27;1
-8.68;-19.55;-12.91;-97.65;-62.09;-138.82;1
-12.13;-19.55;-8.06;-62.13;8.82;-54.03;1
-4.58;-11.66;-7.95;-1.89;-8.65;-34.05;1
-0.66;-9.51;-11.72;14.74;-34.18;-37.85;1
0.8;-8.36;-14.05;5.18;-37.57;-49.11;1
1.93;-7.18;-14.69;-14.1;-20.99;-61.59;1
2.54;-6.81;-14.86;-42.41;-5.12;-73.83;1
3.08;-7.26;-14.68;-73.37;2.7;-84.79;1
4.33;-9.19;-12.76;-92.53;21.84;-94.18;1
4.46;-11.6;-10.81;-94.81;47.08;-100.01;1
3.69;-12.91;-9.56;-78.37;61.09;-105.82;1
2.39;-12.73;-9.92;-62.15;75.94;-102.96;1
0.96;-11.16;-11.32;-52.33;79.68;-94.42;1
0.11;-11.13;-13.11;-49.84;71.1;-98.6;1
-1.08;-11.76;-14.71;-58.63;69.46;-117.14;1
-2.32;-11.53;-14.63;-76.76;70.02;-126.12;1
-2.52;-9.43;-12.6;-99.15;59.52;-123.2;1
-1.76;-9.71;-8.44;-103.35;36.38;-121.12;1
-1.78;-11.96;-4.42;-59.37;25.64;-127.5;1
-5.13;-12.29;-6.45;-16.97;58.7;-128.1;1
-8.78;-11.73;-8.14;-3.73;70.28;-120.68;1
-12.11;-11.11;-8.02;0.92;54.38;-98.19;1
-13.88;-9.01;-6.64;15.43;33.64;-64.17;1
-14.75;-6.93;-6.79;29.08;31.09;-28.12;1
-15.07;-6.71;-6.94;42.94;24.73;9.4;1
-13.02;-8.54;-7.64;65.55;2.67;36.68;1
-13.21;-10.29;-9.15;84.86;-32.71;71.05;1
-12.59;-11.3;-9.81;89.43;-63.78;108.63;1
-11.05;-12.43;-10.6;86.66;-80.21;144.21;1
-7.97;-11.8;-10.76;77.2;-92.52;170.12;1
-4.59;-12.12;-9.73;64.22;-101.81;191.65;1
-1.22;-15.45;-8.26;69.31;-124.8;209.07;1
2.65;-19.55;-7.84;99.88;-127.39;207.75;1
5.48;-19.55;-10.81;127.16;-73.18;181.15;1
7.82;-19.55;-13.51;145.04;-28.17;151.16;1
7.73;-19.37;-13.72;152.44;-65.91;145.63;1
5.02;-16.86;-14.07;139.75;-67.51;144.99;1
1.75;-15.76;-13.8;116.85;-50.05;144.97;1
1.67;-18.97;-14.03;98.65;-11.58;156.32;1
3.01;-18.61;-13.58;89.18;17.8;160.67;1
3.09;-15.98;-12.51;92.1;18.32;150.1;1
3.58;-13.54;-12.14;96.63;5.74;144.02;1
3.14;-12.4;-12.02;96.06;-6.23;140.98;1
2.43;-10.69;-11.54;91.86;-31.02;135.53;1
1.35;-9.56;-11.2;88.54;-54.06;132.99;1
1.13;-8.71;-11.19;74.45;-72.07;130.63;1
1.9;-7.76;-11.63;62.84;-82.88;128.02;1
3.36;-6.61;-11.65;54.21;-90.28;119.19;1
4.45;-5.28;-11.86;49.14;-92.58;106.02;1
5.7;-4.12;-12.2;43.79;-86.41;90.55;1
6.64;-3.13;-12.33;34.78;-75.32;69.83;1
6.47;-2.22;-12.2;21.75;-67.42;46.36;1
6.2;-1.29;-12.01;5;-57.01;22.57;1
4.91;-0.68;-11.12;-12.74;-48.62;-4.02;1
2.22;-1.16;-9.59;-27.05;-46.53;-21.2;1
0.04;-2.28;-5.93;-25.93;-54.8;-37.61;1
-2.57;-3.08;-1.78;-22.1;-74.74;-54.15;1
-5.93;-4.07;0.19;-16.34;-90.47;-59.43;1
-9.98;-6.36;0.16;-14.34;-80.67;-51.43;1
-13.51;-7.28;-3.27;-35.85;-9.71;-27.16;1
-12.12;-8.7;-7.44;-72.82;68.45;-13.81;1
-9.92;-8.72;-9.39;-98.38;114.76;-19.51;1
-8.25;-8.14;-10.67;-95.51;164.73;-35.08;1
-6.08;-8.09;-12.62;-81.3;215.7;-37.88;1
0.12;-7.92;-11.48;-81.14;202.2;-34.5;1
4.61;-9.86;-9.85;-111.42;59.83;-28.41;1
9.72;-19.55;-1.69;-87.05;-17.67;-45.04;1
3.93;-19.55;0.99;31.34;4.23;-55.63;1
-2.69;-19.55;-5.95;75.29;-25.96;-49.52;1
-2.32;-12.89;-14.71;56.08;3.44;-5.26;1
2.8;-5.3;-17.22;20.42;25.04;31.01;1
7.93;-0.7;-16.05;-32.24;20.28;24.99;1
10.14;0.28;-13.9;-61.2;49.04;-11.71;1
9.23;-2.61;-11.64;-58.86;79.55;-66.4;1
4.55;-6.64;-10.04;-47.24;103.74;-91.97;1
1.71;-9.44;-9.86;-36.73;124.06;-103.4;1
-2.04;-10.95;-10.81;-27.89;131.46;-109.01;1
-5.47;-12.8;-11.8;-18.16;116.9;-102.76;1
-7.72;-13.02;-11.49;-17.57;89.53;-82.75;1
-7.25;-11.39;-11.36;-31.28;68.68;-62.49;1
-5.29;-9.7;-10.86;-42.43;47.05;-57.69;1
-4.36;-7.96;-10.42;-37.58;21.87;-59.04;1
-3.96;-6.7;-10.66;-27.86;-1.98;-64.88;1
-3.59;-6.28;-11.27;-21.21;-27.22;-71.16;1
-2.57;-6.28;-12.49;-25.76;-53.44;-75.33;1
-1.51;-6.75;-12.17;-36.82;-63.83;-80.27;1
-0.37;-7.29;-12.71;-51.89;-61.6;-84.14;1
0.74;-8.54;-13.1;-69.98;-51.45;-90.75;1
1.82;-10.28;-12.36;-88.47;-35.46;-91.76;1
4.2;-12.55;-11.83;-97.44;-15.04;-93.58;1
6.79;-14.26;-11.21;-87.46;18.32;-105.64;1
6.47;-14.21;-11.48;-73.88;48.36;-118.5;1
4.14;-12.77;-11.78;-70.16;69.05;-125.15;1
1.3;-13.27;-11.79;-70.67;79.97;-129.14;1
-1.93;-14.8;-11.57;-77.98;85.93;-137.36;1
-5.85;-16.42;-10.64;-82.95;79.2;-143.47;1
-7.99;-15.03;-9.39;-73.06;73.99;-135.45;1
-7.9;-12.31;-7.97;-50.31;64.06;-121.67;1
-7.44;-11.04;-7.68;-31.44;64.41;-108.09;1
-8.63;-10.91;-7.1;-15.28;57.74;-97.04;1
-12.18;-11.48;-6.65;8.08;45.17;-79.27;1
-15.82;-12.99;-7.16;39.43;32.31;-45.43;1
-16.21;-12.68;-7.69;60.11;15.9;1.57;1
-12.74;-11.72;-8.01;68.82;-5.74;34.57;1
-11.98;-11.69;-8.26;70.27;-36.58;71.8;1
-9.53;-11.05;-9.05;66.98;-54.95;107.01;1
-7.01;-10.66;-10.13;49.94;-73.87;139.95;1
-5.26;-12.16;-11.47;39.06;-109.83;162.65;1
-2.5;-15.03;-12.44;43.37;-124.62;171.6;1
-0.41;-17.94;-12.49;54;-118.94;158.34;1
0.28;-19.33;-12.04;71.41;-76.92;138.6;1
0.51;-17.84;-9.98;103.14;-65.55;138.79;1
1.4;-16.42;-10.03;119.72;-109.33;153.09;1
3.1;-18.41;-13.4;115.11;-126.46;154.58;1
4.98;-18.22;-13.61;107.38;-97.06;150.39;1
5.87;-16.21;-13.63;103.46;-70.22;142.74;1
5.32;-13.08;-12.13;99.36;-41.79;133.36;1
5.35;-11.32;-11.48;96.5;-18.94;134.32;1
5.39;-9.77;-10.91;95.01;-6.82;131.99;1
5.35;-8.66;-10.73;89.89;-2.55;125.57;1
4.53;-7.32;-10.73;83.84;-5.73;119.08;1
2.86;-6.96;-10.73;72.73;-25.02;108.69;1
1.89;-6.91;-10.73;63.14;-47.07;103.02;1
2.36;-5.75;-10.92;57.78;-56.74;96.27;1
2.67;-4.52;-11.36;54.08;-62.36;83.72;1
3.21;-3.48;-11.95;50.3;-60.33;71.51;1
3.73;-2.5;-12.54;41.95;-55.23;58.32;1
4.61;-1.86;-12.97;29.41;-43.78;44.68;1
4.75;-1.3;-13;15.84;-38.27;27.06;1
4.95;-1.5;-12.4;2.62;-32.65;12.47;1
4.38;-0.35;-11.59;-8.6;-30.89;-14.17;1
3.02;-1.41;-10.5;-20.4;-33.28;-37.15;1
0.76;-1.92;-9.59;-40.47;-56.15;-48.98;1
-1.26;-2.76;-6.65;-50.86;-96.09;-58.16;1
-3.2;-4.93;-4.02;-46.18;-133.33;-61.01;1
-5.77;-7.68;-1.8;-30.71;-152.26;-63.53;1
-9.54;-10.98;-5.13;-26.31;-115.07;-61.6;1
-13.23;-13.19;-9.39;-61.1;-31.54;-45.59;1
-14.11;-16.18;-9;-101.18;65.39;-3.56;1
-5.52;-16.43;-5.49;-93.17;140.7;-0.1;1
-6.12;-16.34;-2.05;-33.64;219.59;-11.34;1
-8.07;-16.85;-3.8;7.07;252.48;5.25;1
-1.44;-19.55;-6.23;-37.66;187.35;30.86;1
8.9;-19.55;-2.45;-59.7;112.63;38.83;1
5.53;-19.55;0;40.85;-1.52;59.08;1
7.37;-7.41;-10.63;78.51;-35.42;71.25;1
9.05;-1;-18.71;51.5;-5.75;67.96;1
9.41;2.13;-21.38;22.14;57.35;47.86;1
10.67;5.61;-18.78;-27.5;116.68;6.05;1
10.34;4.02;-17.52;-70.84;154.24;-55.62;1
7.42;-2.58;-13.96;-94.26;123.76;-120.46;1
2.78;-11.62;-10.99;-93.96;99.01;-162.72;1
-1.03;-19.55;-8.88;-66.4;87.61;-197.81;1
-8.05;-19.55;-7.4;-19.83;45.28;-207.37;1
-11.36;-19.55;-8.73;8.91;-11.34;-138.06;1
-11.36;-15.38;-11.4;9.2;10.85;-51.58;1
-5.67;-8.98;-12.72;-5.73;20.84;-17.4;1
-0.13;-6.92;-15.09;-34.63;18.87;-32.51;1
0.67;-6.12;-15.33;-62.76;8.44;-53.69;1
1.45;-6.04;-14.26;-84.69;-5.44;-78.46;1
1;-6.9;-12.54;-93.32;-8.04;-98.94;1
-0.57;-7.37;-9.39;-81.45;-13.71;-116.5;1
-2;-7.8;-8.49;-62.45;-26.43;-124.75;1
-1.83;-8.22;-9.45;-51.66;-32.07;-125.79;1
-1.65;-9.19;-10.96;-52.37;-42.85;-119.25;1
-1.16;-11.32;-12.6;-62.03;-47.01;-106;1
0.97;-13.24;-14.48;-77.42;-24.94;-90.52;1
3.56;-14.7;-15.09;-99.49;11.14;-89.46;1
4.72;-15.44;-13.85;-113.64;50.29;-97.28;1
4.62;-14.6;-10.55;-110.09;69.31;-110.37;1
2.23;-14.85;-7.8;-86;81.93;-120.76;1
-1.27;-15.44;-7.88;-61.86;98.17;-125.55;1
-5.18;-15.38;-7.96;-48.52;110.82;-118.5;1
-6.68;-13.28;-8.01;-34.84;119.45;-104.94;1
-7.49;-11.13;-8.11;-18.57;114.81;-95.82;1
-9.82;-9.75;-7.61;-1.05;100.51;-85;1
-13.74;-8.58;-5.81;21.52;91.14;-64.03;1
-16.58;-6.95;-4.16;45;80.91;-31.51;1
-15.86;-5.67;-3.68;66.33;58.26;-2.13;1
-15.58;-5.82;-5;85.24;25.89;31.53;1
-13.21;-6.55;-8.57;90.72;-3.18;67.53;1
-10.76;-7.73;-10.79;88.68;-35.63;101.22;1
-9.16;-9.42;-11.2;74.97;-73.94;143.54;1
-8.69;-13.68;-12.9;56.64;-149.91;189.01;1
-5.88;-19.55;-15.63;41.69;-192.68;200.18;1
-1.23;-19.55;-15.94;25.3;-134.83;170.34;1
0.54;-19.55;-11.55;27.28;-48.91;150.79;1
1.76;-19.55;-5.76;85.71;-29.96;159.02;1
5.35;-19.55;-10.21;132.88;-61.72;168.86;1
5.3;-19.55;-13.18;126.72;-97.5;168.96;1
2.23;-18.96;-14.89;113.59;-112.7;164.79;1
5.48;-19.55;-16.73;87.54;-58.08;163.63;1
5.05;-15.36;-13.71;72.24;-30.42;147.82;1
5.08;-13.12;-10.64;76.46;-6.3;148.86;1
6.21;-12.24;-10.25;84.58;-2.69;144.64;1
6.48;-10.93;-10.79;82.52;3.36;131.9;1
5.45;-8.99;-11.2;72.34;-2.14;116.55;1
4.57;-7.92;-11.5;61.43;-14.52;107.56;1
4.11;-7.09;-11.49;50.16;-34.68;101.47;1
4.14;-6.1;-10.9;41.03;-62.44;89.76;1
4.67;-4.64;-10.49;36.56;-84.66;77.74;1
4.97;-3.14;-10.38;33.91;-99.3;63.08;1
4.88;-1.84;-11.06;30.38;-98.31;46.54;1
4.96;-0.79;-12.1;21.21;-84.72;30.04;1
5;0.24;-12.65;7.77;-66.16;15.58;1
5.52;0.47;-12.36;-7.84;-46.1;0.12;1
5.71;0.41;-12;-26.82;-31.39;-21.08;1
5.16;-0.43;-11.62;-43.08;-11.97;-40.83;1
2.86;-2.01;-9.22;-51.62;-4.45;-59.78;1
0.64;-3.81;-6.41;-53.72;-26.46;-72.33;1
-2.63;-5.19;-3.9;-49.16;-72.02;-81.66;1
-7.56;-7.77;-2.31;-34.15;-108.94;-80.21;1
-12.26;-11.02;-5.85;-29.87;-81.14;-74.24;1
-17.16;-13.71;-9.11;-70.66;-17.49;-50.09;1
-18.27;-17.28;-7.26;-91.26;41.9;0.43;1
-9.09;-16.65;-5.56;-61.18;55.24;3.32;1
-6.88;-13.62;-8.14;-9.67;100.44;3.74;1
-5.01;-9.84;-10.47;26.6;148.74;19.55;1
0.89;-8.62;-10.49;-0.41;127.32;35.44;1
10.6;-17.79;-9.18;-94.75;70.22;19.18;1
5.68;-19.55;3.41;-98.87;99.3;38.07;1
1.43;-19.55;-1.79;41.85;72.36;70.28;1
6.68;-7.46;-13.76;65.02;23.45;65.36;1
7.72;0.88;-19.84;24.74;-1.61;58.18;1
8.53;3.21;-19.36;-26.92;21.12;32.93;1
9.66;3.73;-16.1;-68.86;86.12;-11.56;1
9.25;-0.46;-13.2;-87.83;88.18;-79.56;1
6.6;-7.41;-8.26;-85.89;68.61;-130.85;1
2;-15.52;-5.57;-45.07;68.35;-156.53;1
-1.63;-19.55;-8.34;-1.91;39.32;-173.9;1
-6.4;-19.55;-12.32;14.73;-4.78;-164.1;1
-8.15;-18.95;-14.01;-0.79;-16.23;-99.75;1
-6.99;-12.83;-15.25;-18.84;27.38;-47.57;1
-2.05;-10.02;-15.65;-37.09;37.58;-35.68;1
0.65;-9.09;-15.93;-57.64;25.66;-49.27;1
1.08;-8.14;-14.74;-75.21;10.22;-63.27;1
0.04;-7.01;-13.89;-82.38;-2.5;-74.23;1
-0.29;-7.27;-12.27;-85.08;-8.49;-87.86;1
-0.03;-8.53;-11.2;-85.59;-14.11;-106.53;1
0.32;-10.21;-10.35;-85.59;-20.96;-123.65;1
0.31;-11.88;-10.29;-81.79;-24.62;-129.14;1
-0.5;-13.4;-10.48;-76.99;-26.91;-119.11;1
0.32;-13.39;-11.31;-75.94;-12.83;-99.96;1
2.1;-13.25;-12.46;-77.5;16.32;-90.83;1
3.51;-13.62;-13.36;-83.11;54.74;-93.79;1
4.34;-12.55;-13.16;-88.87;84.39;-101.46;1
3.69;-12.66;-12.3;-90.03;96.18;-110.46;1
0.97;-13.82;-10.7;-87.98;94.47;-119.98;1
-3.2;-13.48;-8.57;-78.9;108.26;-124.6;1
-8.04;-13.18;-6.43;-49.43;126.65;-113.82;1
-11.09;-11.68;-5.69;-8.26;121.29;-94.33;1
-12.39;-9.55;-6.67;19.43;97.87;-70.97;1
-14.49;-7.61;-6.81;28.47;71.13;-45.25;1
-15.2;-6.88;-5.92;34.26;62.96;-11.42;1
-13.59;-7.93;-5.93;48.98;50.87;21.12;1
-11.91;-8.9;-7;69.19;31.29;38.88;1
-10.43;-8.99;-7.95;81.35;4.09;64.37;1
-9.65;-10.05;-7.49;82.24;-21.7;91.18;1
-9.59;-11.98;-8.43;83.02;-54.02;124.27;1
-8.4;-13.57;-11.58;81.47;-102.95;151.12;1
-5.34;-14.19;-13.24;71.94;-116.98;164.34;1
-3.02;-15.44;-13.07;60.73;-120.58;165.67;1
-0.38;-17.66;-13.69;57.96;-106.12;161.56;1
1.74;-19.55;-12.55;71.18;-71.33;161.65;1
2.87;-19.55;-10.02;102.48;-71.38;166.5;1
4.28;-19.55;-11.13;123.86;-84.27;169.31;1
6.33;-19.55;-13.97;127.04;-55.38;153.38;1
6.57;-18.94;-14.24;122.66;-30.42;132.18;1
4.87;-14.64;-13.54;113.93;-5.71;121.77;1
3.46;-12.5;-12.83;96.61;2.06;130.63;1
3.45;-11.52;-12.24;83.27;12.35;141.18;1
3.87;-11.11;-10.69;77.83;22.19;140.87;1
3.94;-10.07;-10.16;78.03;18.32;135.67;1
3.39;-9.1;-10.07;77.05;8.29;129.31;1
2.35;-8.16;-9.89;68.34;-18.81;118.71;1
2.22;-7.12;-9.87;61.07;-37.13;112.31;1
2.54;-5.91;-10.04;58.98;-57.92;102.01;1
3.13;-4.62;-10.87;58.27;-68.65;87.4;1
3.66;-3.28;-11.86;53.77;-67.23;70.43;1
3.62;-2.48;-12.3;41.57;-65.5;50.96;1
3.82;-1.95;-12.45;26.07;-60.67;32.22;1
3.21;-1.78;-12.48;12.24;-63.7;14.92;1
3.02;-2.11;-12.25;0.12;-69.32;-6.46;1
3.02;-2.32;-11.82;-10.16;-68.59;-31.2;1
2.76;-2.32;-11.43;-20.63;-62.11;-49.13;1
1.58;-2.6;-9.79;-33.67;-58.9;-63.92;1
-0.1;-3.69;-7.97;-47.61;-50.24;-75.65;1
-2.53;-4.94;-6.14;-59.21;-28.78;-81.25;1
-5.63;-7.73;-4.48;-66.59;-13.58;-84.14;1
-8.7;-10.57;-5.56;-67.15;-6.63;-73.53;1
-9.69;-11.72;-8.34;-70.53;-0.77;-54.43;1
-10.98;-12.49;-9.94;-79.34;21.38;-24.51;1
-8.54;-11.25;-10.02;-77.83;72.64;0.83;1
-5.63;-9.47;-7.76;-61.61;134.35;13.56;1
-2.65;-9.22;-4.53;-69.44;130.25;27.21;1
4.95;-14.76;-1.36;-98.85;101.62;20.54;1
10.75;-19.55;4.13;-41.41;145.52;-2.22;1
1.45;-19.55;-4.8;62.42;88.15;11.5;1
0.31;-10.25;-16.11;91.45;17.1;22.41;1
1.04;-2.1;-19.16;47.56;17.67;35.44;1
3.59;1.32;-17.82;-9.24;20.3;32.41;1
7.21;2.3;-15.68;-43.95;34.06;6.91;1
9.5;1;-13.15;-51.64;40.92;-43.4;1
7.57;-4.71;-12.29;-42.47;45.09;-97.56;1
2.94;-9.95;-13.63;-36.57;57.59;-132.82;1
-0.26;-14.45;-14.46;-50.04;39.32;-159.71;1
-3.69;-18.95;-13.98;-66.44;12.21;-159.59;1
-6.24;-19.55;-11.43;-68.73;18.1;-119.41;1
-5.07;-18.72;-9.1;-50.51;28.34;-63.15;1
-1.44;-12.47;-10.11;-32.13;14.98;-50;1
-0.22;-9.37;-11.8;-32.36;3.47;-53.94;1
0.23;-8.14;-13.08;-37.63;4.49;-62.53;1
0.5;-7.69;-13.66;-47.57;7.03;-71.43;1
1.44;-7.29;-13.79;-65.92;9.81;-86.7;1
2.2;-7.4;-13.03;-86.08;11.71;-106.15;1
2.6;-8.79;-11.88;-95.32;12.48;-123.06;1
2.78;-11.09;-11.19;-89.64;22.83;-132.92;1
2.46;-13.65;-11.67;-76.76;36.69;-137.84;1
1.49;-15.53;-12.61;-68.69;45.19;-137.73;1
0.41;-16.23;-13.45;-69.96;43.61;-137.28;1
-1.29;-16.21;-13.51;-76.87;34.61;-139.27;1
-2.98;-14.51;-13.13;-81.86;24.7;-139.24;1
-3.94;-12.36;-12.01;-88.23;26.65;-134.14;1
-3.97;-11.99;-10.42;-96.77;35.96;-124.07;1
-2.19;-11.28;-5.63;-98.71;25.75;-118.33;1
-2.58;-13.32;-2.22;-52.66;13.6;-129.69;1
-8.75;-13.2;-4.75;-10.92;71.41;-122.15;1
-12.69;-10.29;-6.44;19.22;103.35;-91.54;1
-14.77;-6.49;-7.3;34.72;105.77;-59.62;1
-17.15;-3.57;-6.11;33.1;89.74;-22.24;1
-16.67;-3.47;-5.26;41.56;66.33;21.53;1
-15.32;-5.54;-6;66.68;39.09;64.01;1
-11.92;-7;-8.34;89.3;-0.44;100.67;1
-10.36;-8.77;-10.51;97.4;-47.58;135.86;1
-8.96;-11.92;-10.74;84.79;-84.82;174.93;1
-7.67;-15.67;-11.23;56.41;-122.76;217.37;1
-4.12;-19.55;-13.39;43.62;-160.6;228.18;1
1.71;-19.55;-13.77;49.53;-132.27;195.13;1
3.47;-19.55;-10.7;87.59;-84.36;163.55;1
5.79;-19.55;-11.14;145.12;-70.7;159.63;1
6.97;-19.55;-12.74;155.66;-120.52;173.19;1
5.85;-19.55;-14.16;143.46;-120.39;180.24;1
5.7;-19.55;-16.14;128.69;-82.04;183.25;1
9.36;-19.55;-15.66;101.57;4.55;145.06;1
6.29;-12.86;-10.61;104.44;22.72;130.25;1
4.96;-10.06;-10.16;112.38;25.5;133.05;1
4.54;-9.35;-10.47;107.72;29.76;132.79;1
3.41;-7.44;-10.2;94.87;18.03;130;1
1.83;-6.6;-9.84;84.55;-3.65;131.39;1
1.95;-5.83;-9.35;75.82;-30.91;130.72;1
2.36;-5.37;-9.38;73.24;-72.47;126.47;1
3.08;-4.9;-9.88;77.65;-103.22;120.89;1
3.91;-4.27;-11.3;81.52;-119.26;112.03;1
4.82;-3.12;-12.96;78.82;-113.68;98.9;1
5.68;-1.91;-14.14;65.61;-95.18;81.11;1
7.04;-1;-14.49;42.98;-60.09;57.09;1
7;-0.4;-14.43;14.05;-24.64;29.37;1
5.09;-0.47;-12.84;-16.84;0.84;3.18;1
3.59;-1.42;-11.12;-34.31;22.74;-27.49;1
1.07;-2.99;-8.45;-37.44;26.33;-49.24;1
-1.59;-3.64;-5.32;-34.7;4.3;-61.45;1
-5.98;-5.42;-2.11;-28.31;-35.59;-64.09;1
-12.47;-8.81;-1.25;-20.48;-72.64;-50.75;1
-16.9;-9.19;-5.07;-17.6;-53.36;-31.9;1
-18.78;-9.25;-9.78;-43.17;7.38;3.88;1
-12.32;-7.68;-7.69;-73.99;68;23.08;1
-9.21;-8.98;-1.25;-70.18;152.41;27;1
-6.38;-9.91;4.74;-34.53;198.96;47.07;1
2.42;-11.94;-5.72;-12.55;139.64;63.92;1
8.52;-16.67;-16.22;-3.7;19.29;47.6;1
12.33;-19.55;-16.69;-35.21;-79.96;15.37;1
7.6;-16.48;-8.57;-50.38;-51.92;-9.97;1
2.61;-11.54;-8.91;0.65;12.74;-12.72;1
4.56;-3.77;-11.44;4.56;13.41;-14.91;1
5.58;-2.9;-13.43;-8.69;9.83;-31.82;1
4.03;-4.28;-12.68;-29.82;44;-65.57;1
2.26;-9.78;-12.76;-45.68;42.83;-87.24;1
1.48;-14.48;-11.33;-65.64;26.03;-102.48;1
0.08;-18.64;-10.02;-57.74;24.27;-113.11;1
-1.98;-19.55;-10.42;-31.65;24.8;-102.25;1
-1.39;-17.26;-12.51;-26.51;30.7;-84.92;1
-1;-13.6;-13.85;-36.8;42.22;-72.13;1
-1;-10.93;-14.94;-50.4;42.42;-69.58;1
-0.31;-10.02;-14.64;-63.3;47.14;-76.94;1
-0.83;-10.25;-13.99;-74.93;40.64;-83.95;1
-1.21;-11.1;-13.9;-84.68;38.03;-90.63;1
-1.29;-11.92;-12.96;-92.19;34.91;-102.38;1
-1.63;-12.2;-11.04;-91.65;19.99;-111.7;1
-1.88;-12.22;-10.43;-87.42;3.93;-116.49;1
-1.12;-12.44;-10.35;-81.5;-5.45;-122.42;1
0.27;-12.61;-10.19;-74.95;-8.87;-126.82;1
1.82;-12.99;-11.5;-77.23;-3.85;-131.41;1
2.87;-12.93;-11.63;-81.2;17.52;-130.75;1
3.4;-13.07;-11.99;-88.53;43.08;-133.63;1
2.35;-13.05;-11.08;-89.37;58.8;-142.88;1
-0.2;-13.45;-10.4;-81.81;60.32;-142.98;1
-3.19;-14.02;-10.36;-73.36;63.11;-145.6;1
-6.77;-13.64;-9.74;-67.44;68.02;-146.6;1
-8.43;-11.27;-8.3;-71.06;83.12;-138.75;1
-8.83;-9.97;-5.5;-68.54;73.66;-124.27;1
-8.3;-10.2;-1.67;-35.83;61.67;-112.64;1
-9.63;-8.68;-2.26;1.2;99.83;-97.01;1
-11.76;-7;-4.62;25.97;106.45;-69.69;1
-14.54;-5.7;-6.74;44.63;74.81;-42.99;1
-16.44;-3.51;-6.55;53.98;51.89;-9.45;1
-15.02;-2.77;-5.32;64.18;43.03;23.99;1
-14.66;-3.49;-5.71;90.01;22.07;61.99;1
-11.68;-5.33;-8.23;114.31;-8.51;98.44;1
-10.82;-8.83;-11.25;109.6;-34.36;139.42;1
-10.26;-12.12;-12.62;84.05;-67.94;180.86;1
-9.79;-16.66;-13.57;52.14;-122.55;214.42;1
-5.77;-19.55;-14.44;21.56;-199.7;203.66;1
0.34;-19.55;-15.01;23.43;-182.99;160.87;1
-0.41;-19.55;-9.73;70.18;-133.55;156.53;1
1.46;-19.55;-9.03;127.11;-149.3;178.06;1
4;-19.55;-12.77;141.5;-161.9;191.63;1
4.72;-19.55;-13.52;139.19;-148.54;195.3;1
9.26;-19.55;-15.41;131.25;-82.45;195.01;1
12.37;-19.55;-13.56;115.84;0.46;153.11;1
10.54;-13.21;-10.47;123.25;38.68;140.53;1
8.4;-10.75;-9.98;120.48;58.25;134.88;1
6.81;-9.55;-9.58;112.72;72.44;127.2;1
5.62;-8.23;-9.89;97.16;64.77;121.65;1
3.04;-7.41;-9.66;81.85;32.51;116.91;1
2.23;-6.82;-9.59;72.83;0.78;116.34;1
2.07;-6.14;-9.42;69.43;-38.16;110.71;1
3.3;-4.79;-10.12;68.69;-63.6;103.7;1
3.97;-3.29;-11.13;65.27;-74.71;90.6;1
4.26;-1.98;-12.3;55.13;-70.74;74.35;1
4.5;-1.32;-13.04;34.98;-59.26;54.59;1
4.93;-0.56;-12.86;10.33;-39.18;31.25;1
4.14;0.11;-11.71;-15.03;-22.07;13.1;1
2.5;-0.68;-9.53;-32.07;-15.58;-5.7;1
1.58;-1.78;-6.59;-27.53;-9.72;-32.08;1
-1.24;-3.19;-4.97;-13.62;-19.9;-44.53;1
-4.82;-4.51;-5.08;-9.53;-36.88;-49.47;1
-9.87;-6.28;-4.09;-11.6;-62.81;-45.07;1
-14.78;-8.59;-5.76;-29.34;-44.54;-29.48;1
-17.92;-9.75;-9.56;-66.98;34.81;-9.46;1
-15.05;-9.63;-10.78;-93.54;95.86;7.13;1
-8.23;-10.4;-7.42;-85.4;142.7;2.67;1
-0.62;-10.68;-1.14;-56.76;200.14;-12.09;1
5.96;-12.7;-2.87;-12.07;113.27;-0.98;1
13.91;-18.65;-10.26;8.85;23.7;-31.06;1
10.96;-19.55;-10.24;-35.19;17.07;-58.15;1
5.36;-17.9;-10.88;-49;33.25;-67.24;1
-1.96;-13.81;-13;-19.79;82.7;-50.29;1
-0.86;-8.31;-14.89;-22.97;73.95;-31.47;1
2.97;-5.39;-16.58;-51.28;52.14;-37.56;1
3.55;-6.03;-14.46;-85.86;28.97;-69.46;1
1.44;-9.52;-11.19;-94.73;23.02;-94.51;1
0.54;-13.05;-8.4;-76.21;17.68;-106.72;1
-0.21;-14.53;-7.41;-45.1;21.94;-110.63;1
-0.84;-13.62;-9.6;-24.21;24.33;-108.5;1
-0.83;-12.45;-11.57;-28.02;28.51;-100.31;1
-0.02;-11.88;-12.03;-47.26;44.3;-94.5;1
-0.81;-11.74;-11.69;-62.74;46.99;-93.51;1
-1.85;-11.08;-11.6;-66.05;39.69;-94.16;1
-2.97;-9.99;-11.36;-60.52;26.41;-95.59;1
-3.51;-8.83;-11.09;-54.76;3.32;-95.46;1
-2.47;-7.92;-11.4;-51.4;-12.44;-96.33;1
-1.13;-7.66;-11.61;-51.71;-19.23;-100.38;1
0.27;-7.81;-12.36;-60.05;-14.13;-107.64;1
2.07;-9.35;-12.81;-72.66;-7.59;-118.38;1
2.19;-11.95;-12.29;-77.02;6.92;-121.98;1
2.92;-13.79;-12.11;-73.23;29.77;-122.15;1
2.36;-13.86;-11.91;-64.67;46.83;-120.24;1
0.85;-13.45;-11.97;-65.3;51.32;-124.54;1
-0.87;-13.66;-12.3;-71.86;53.97;-126.52;1
-2.83;-13.12;-12.03;-77.72;56.98;-125.33;1
-4.23;-12.27;-11.41;-77.73;64.15;-115.74;1
-4.34;-11.63;-9.87;-74.61;68.01;-101.71;1
-3.29;-10.36;-7.69;-62.25;67.51;-93.54;1
-3.63;-10.2;-5.71;-37.82;66.45;-98.62;1
-6.78;-11.18;-6.41;-7.58;76.27;-98.96;1
-10.79;-10.74;-7.2;13.82;80.15;-81.51;1
-13.1;-9.03;-6.45;26.31;78.55;-47.58;1
-15.26;-7.45;-4.69;40.44;72.03;-10.37;1
-13.12;-6.77;-3.98;65.53;60.63;19.24;1
-12.21;-6.52;-4.91;90.45;26.79;61.15;1
-10.25;-7.5;-7.46;97.35;-14.65;99.35;1
-9.72;-10.15;-10.16;91.72;-66.68;137.68;1
-8.81;-13.1;-12.08;74.43;-121.33;171.99;1
-6.34;-16.24;-14.13;50.37;-146.4;184.05;1
-1.8;-19.55;-14.85;28.95;-110.84;168.58;1
1.63;-18.78;-12;27.14;-50.04;147.12;1
1.66;-17.71;-7.3;86.11;-51.22;140.7;1
3.84;-18.2;-10.21;140.27;-86.69;142.18;1
4.2;-18;-12.01;141.05;-110.11;144.54;1
1.75;-17.28;-13.45;126.59;-125.43;148.15;1
3.54;-19.55;-16.56;108.04;-89.07;154.25;1
5.98;-18.27;-15.03;82.68;-33.59;145.76;1
5.72;-13.09;-10.34;78.89;0.73;144.84;1
6.32;-11.99;-8.6;87.53;7.87;147.94;1
7.32;-10.46;-9.74;89.02;24.88;138.54;1
6.51;-8.6;-10.82;77.72;36.32;124.3;1
3.39;-7.41;-11.07;61.97;21.03;113.22;1
0.97;-7.5;-11.23;48.48;-5.91;109.78;1
0.76;-7.58;-10.68;38.65;-33.49;107.83;1
1.63;-6.72;-10.13;35.02;-54.35;100.96;1
2.22;-5.82;-10.35;36.26;-69.21;86.73;1
2.76;-4.58;-10.99;34.32;-74.23;70.19;1
3.43;-3.67;-11.78;24.5;-71.42;52.44;1
3.62;-2.87;-12.23;8.89;-69.19;33.44;1
3.76;-2.49;-11.79;-4.58;-70.6;15.84;1
4.25;-2.25;-11.02;-11.65;-74.34;-5.63;1
3.71;-2.74;-10.43;-12.54;-71.52;-23.37;1
2.59;-2.87;-10.32;-14.45;-71.23;-38.07;1
1.54;-3.07;-10.36;-26.03;-65.43;-45.95;1
0.56;-3.75;-9.79;-48.01;-63.44;-53.14;1
-1.71;-4.73;-8.76;-72.99;-66.85;-60.27;1
-5.2;-6.8;-7.06;-91.56;-55.3;-59.69;1
-6.74;-8.85;-6.59;-105.68;-3.58;-63.74;1
-9.76;-12.47;-6.23;-112.4;67.39;-60.61;1
-10.65;-15.63;-5.43;-98.51;94.01;-48.72;1
-8.05;-15.04;-7.92;-74.73;121.38;-29.2;1
-5.24;-11.89;-10.11;-61.15;180.89;-4.01;1
0.12;-9.88;-11.12;-65.69;188.76;17.08;1
8.51;-15.37;-12.18;-99.02;117.3;24.16;1
16.44;-19.55;-9.07;-126.86;19.99;-15.21;1
4.99;-19.55;4.89;-22.79;-8.71;-61.88;1
-3.41;-17.7;-2.9;60.08;52.7;-60.27;1
-6.53;-12.76;-13.4;65.47;77.23;-50.58;1
-3.48;-4.58;-16.18;42.17;66.93;-9.94;1
5.31;-1.02;-16.13;-1.04;45.28;-5.1;1
10.29;0.42;-15.6;-38.87;43.19;-36.87;1
10.48;-1.42;-15.53;-43.87;70.59;-85.11;1
6.2;-5.28;-16.17;-29.5;89.61;-117.88;1
1.22;-7.75;-16;-20.61;81.54;-130.53;1
-4;-10.8;-15.39;-32.22;24.04;-135.18;1
-9.42;-15.24;-14.41;-62.79;-58.92;-125.71;1
-15.47;-16.47;-11.97;-92.42;-96.38;-92.35;1
-14.96;-12.11;-8.45;-96.91;-12.47;-30.91;1
-5.94;-7.91;-6.18;-70.92;-7.46;1.66;1
0.84;-7.12;-7.36;-37.64;-26.75;-9.62;1
4.74;-6.42;-9.31;-15.8;-44.72;-38.34;1
5.98;-6.19;-11.09;-12.28;-51.64;-64.02;1
5.14;-7;-12.51;-23.02;-25.61;-85.45;1
2.57;-8.23;-13;-38.11;15.95;-92.2;1
0.33;-8.91;-12.44;-50.25;40.73;-84.1;1
-0.77;-9.31;-12.02;-53.44;48.9;-74.9;1
-1.41;-9.49;-11.65;-45.1;51.43;-70.6;1
-2.29;-9.98;-12.29;-33.93;44.83;-72.41;1
-3.06;-10.51;-12.82;-35.62;33.25;-77.95;1
-3.63;-11.38;-12.8;-52.7;31.44;-79.45;1
-3.13;-12;-11.62;-72.54;40.7;-76.41;1
-2.24;-11.83;-9.08;-77.39;47.72;-73.62;1
-1.9;-13.51;-7.57;-59.16;45.35;-74.01;1
-2.66;-13.46;-7.58;-32.08;34.98;-81.63;1
-5.36;-12.83;-8.31;-12.55;26.03;-78.42;1
-8.43;-11.58;-7.98;-1.25;36.13;-56.77;1
-10.23;-10.27;-6.09;12.78;53.26;-24.75;1
-11.35;-9.41;-4.08;36.34;72.27;-1.76;1
-13.58;-8.32;-3.06;65.7;74.77;33.31;1
-12.15;-7.43;-4.88;82.8;61.35;70.48;1
-10.6;-7.99;-7.5;90.81;-7.68;106.92;1
-9.13;-9.77;-10.69;104.88;-85.4;133.67;1
-8.2;-13.19;-12.06;110.15;-101.95;159.13;1
-8.82;-19.03;-11.23;86.49;-99.21;184.62;1
-4.53;-19.55;-11.94;59.76;-119.5;193.18;1
3.22;-19.55;-11.39;71.06;-113.59;177.48;1
3.84;-19.55;-9.56;123.01;-92.39;164.92;1
4.27;-18.81;-11.9;149.08;-99.68;167.17;1
6.04;-19.07;-14.07;140.93;-97.47;164.52;1
5.78;-18.61;-14.4;130.94;-62.49;162.49;1
5.47;-17.48;-13.11;118.79;5.84;148.19;1
4.29;-14.72;-10.71;109.63;41.27;147.36;1
3.53;-13.51;-10.08;107.77;45.02;148.64;1
3.01;-11.71;-10.25;104.67;32.32;144.49;1
1.7;-10.23;-10.24;98.83;3.86;139.96;1
1.38;-9.07;-10.2;88.63;-22.05;138.44;1
2.09;-8.34;-10.1;80.39;-34.49;136.56;1
2.82;-7.57;-10.1;72.47;-43.78;126.33;1
3.31;-7.09;-10.98;63.24;-52.94;111.15;1
3.57;-5.88;-12.07;50.04;-57.8;94.98;1
3.86;-4.9;-12.74;34.59;-59.23;73.5;1
3.99;-3.94;-13.41;17.74;-59.38;50.28;1
3.93;-2.69;-13.28;2.76;-58.4;26.89;1
3.53;-1.63;-12.52;-7.64;-58.05;2.61;1
3.2;-0.71;-12.01;-17.86;-53.12;-23.21;1
2.31;-0.08;-11.85;-32.88;-41.25;-46.3;1
0.57;-0.29;-10.37;-49.15;-30.78;-61.1;1
-1.11;-1.63;-7.92;-55.65;-29.54;-68.8;1
-3.23;-3.53;-6.52;-54.71;-29.2;-65.51;1
-5.87;-6.06;-4.91;-54.61;-29.42;-60.79;1
-8.25;-7.85;-4.72;-58.47;-39.33;-43.53;1
-8.98;-9.51;-7.07;-63.87;-32.71;-19.76;1
-8.02;-9.86;-10.47;-78.18;2.03;5.5;1
-5.73;-9.05;-11.37;-100.29;73.29;21.17;1
-0.5;-6.93;-7.36;-112.69;152.57;12.15;1
1.72;-6.89;0.76;-100.81;140.82;-7.24;1
3.03;-11.28;-1.86;-67.89;105.95;-26.75;1
-0.85;-19.27;-10.18;-31.68;128.45;-31.12;1
-2.32;-19.55;-14.56;-46.11;82.35;-28.43;1
-5.05;-19.55;-10.12;-32.94;14;-12.28;1
-1.34;-12.6;-7.11;10.67;-19.35;22.72;1
4.67;-4.1;-8.85;20.45;-53.81;29.9;1
8.31;-1.24;-10.3;8.07;-36.39;7.37;1
7.8;-1.41;-13.62;3.41;-12.14;-31.11;1
6.42;-3.57;-15.93;-15.03;16.88;-74.73;1
4.1;-7.55;-16.4;-46.42;35.3;-104.71;1
1.1;-11.37;-14.41;-72.29;57.93;-117.51;1
-0.86;-14.56;-11.99;-71.35;72.66;-121.62;1
-2.62;-17.52;-10.82;-51.17;71.56;-108.52;1
-2.69;-17.58;-11.18;-43.49;59.29;-87.9;1
-2.51;-13.75;-12.17;-41.76;56.58;-69.32;1
-1.65;-11.37;-12.71;-39.57;49.55;-64.12;1
-1.52;-9.93;-12.63;-40.89;44.81;-65.9;1
-1.58;-9.05;-13.08;-46.11;35.05;-70.39;1
-1.53;-9;-12.86;-55.97;27.53;-75.77;1
-1.69;-9.41;-12.26;-65.21;13.36;-85.51;1
-1.48;-9.67;-11.12;-69.79;-1.52;-98.27;1
-1.35;-9.9;-9.98;-67.33;-11.43;-108.72;1
-0.76;-10.54;-9.75;-57.01;-14.46;-112.74;1
-0.01;-11.21;-10.37;-50.93;-11.86;-111.32;1
0.38;-12.13;-10.99;-54.1;-5.08;-108.11;1
0.86;-12.63;-11.18;-60.99;11.93;-105.62;1
-0.19;-12.84;-10.62;-67.01;29.94;-111.79;1
-2.48;-12.78;-9.97;-67.05;45.92;-116.76;1
-4.76;-12.76;-9.76;-60.06;58.56;-112.95;1
-6.28;-12.35;-9.6;-53.97;57.61;-101.86;1
-8.17;-12.75;-9.28;-52.57;62.55;-89.76;1
-9.48;-12.68;-7.45;-47.87;79.87;-73.74;1
-9.16;-11.53;-4.06;-24.97;89.43;-56.21;1
-9.09;-10.71;-2.3;13.14;79.45;-41.08;1
-10.75;-9.74;-3;48.55;62.9;-22.83;1
-11.76;-7.72;-4.48;70.77;60.23;4.03;1
-10.48;-5.9;-5.03;77.19;66.94;34.51;1
-9.43;-5.44;-5.22;82.4;56.61;65.74;1
-7.83;-5.83;-7.62;101.43;7.03;91.15;1
-8.19;-8.77;-11.61;122.17;-56.39;107.23;1
-8.01;-11.74;-14.38;131.43;-79.5;128.58;1
-9.25;-16.84;-15.21;104.38;-103.68;138.72;1
-8.6;-19.55;-16.11;48.72;-148.2;130.08;1
-5.22;-17.2;-14.29;24.15;-123.94;149.15;1
-1.94;-15.75;-7.72;49.56;-110.26;165.56;1
1.07;-17.03;-7.31;107.4;-131.95;171.57;1
2.97;-17.85;-9.71;137.04;-147.42;170.58;1
5.76;-19.55;-13.59;141.33;-111.33;162.23;1
7.75;-17.84;-13.89;125.21;-49.29;132.92;1
6.02;-13.71;-12.28;109.67;-0.12;123.44;1
4.75;-11.92;-11.03;96.33;14.99;131.91;1
4.39;-11.24;-9.72;89.38;27.49;127.83;1
3.07;-10.19;-8.84;89.63;15.96;119.4;1
2.2;-9.36;-8.85;89.16;-1.09;115.12;1
1.91;-8.34;-9.72;79.31;-20.62;113.11;1
1.92;-7.54;-10.4;66.78;-35.13;112.61;1
2.23;-6.85;-10.71;54.21;-47.01;107.17;1
2.8;-5.93;-11.24;40.73;-49.05;95.79;1
3.31;-5.21;-12.01;27.27;-49.34;78.96;1
3.92;-4.63;-12.72;12.99;-45.41;59.81;1
4.01;-3.77;-12.82;0.15;-42.6;37.31;1
3.31;-2.63;-12.76;-13.73;-42.7;13.82;1
2.43;-1.45;-12.28;-26.79;-47.4;-7.34;1
2.34;-0.62;-11.59;-39.7;-47.91;-28.02;1
1.14;-0.39;-10.06;-51.1;-49.57;-43.93;1
-0.31;-1.49;-7.63;-57.73;-57.5;-53.87;1
-2.49;-2.97;-4.88;-61.34;-67.62;-55.89;1
-5.15;-5.43;-1.29;-57.05;-74.4;-54.71;1
-8.36;-8.49;0.27;-46.1;-50.78;-43.11;1
-12.23;-11.28;-5.21;-49.58;31.65;-30.2;1
-13.03;-12.78;-11.86;-73.96;137.03;-4.48;1
-8.59;-12.89;-11.37;-98.84;228.64;30.34;1
-0.79;-10.64;-8.2;-107.96;253.55;47.1;1
7.31;-10.43;-4.9;-80.63;128.83;32.17;1
11.67;-15.57;-6.74;-35.47;24.46;-8.08;1
6.38;-19.07;-6.71;-6.63;-5.25;-31.1;1
-0.53;-18.45;-10.58;9.75;-3.67;-44.44;1
-3.46;-13.51;-12.52;10.63;-9.7;-40.4;1
1.34;-8.04;-12.8;-2.33;-10.12;-18.59;1
5.65;-5.58;-12.9;-12.82;-8.09;-39.07;1
5.57;-5.74;-13.33;-16.48;12.51;-68.17;1
3.44;-8.16;-15.53;-30.98;46.97;-79.58;1
2.96;-10.6;-15.62;-54.61;55.56;-92.46;1
0.85;-13.36;-11.83;-63.41;69.89;-89.98;1
-0.09;-13.96;-10.09;-45.06;82.97;-77.25;1
-0.5;-13.99;-10.91;-28.37;81.5;-74.69;1
-1.54;-13.33;-11.65;-28.63;69.98;-80.18;1
-2.55;-12.37;-11.77;-33.21;60.28;-79.67;1
-3.21;-11.43;-11.77;-37.03;47.18;-75.5;1
-2.43;-10.34;-12.46;-44.92;33.29;-79.83;1
-3.25;-9.72;-12.48;-53.22;18.22;-78.54;1
-2.51;-9.21;-12.53;-60.83;6.01;-83.44;1
-1.89;-8.93;-11.65;-66.28;-5.53;-91.71;1
-0.68;-9.25;-11.01;-65.47;-12.55;-99.19;1
0.45;-9.69;-10.44;-63.83;-19.44;-111.24;1
1.13;-10.32;-10.27;-61.22;-5.77;-117.19;1
0.78;-11.27;-10.62;-57.72;10.43;-120.11;1
0.58;-11.95;-11.13;-56.37;24.53;-119.83;1
0.35;-11.82;-11.28;-57.31;47.55;-119.51;1
-0.69;-11.44;-11.11;-58.02;63.72;-119.78;1
-2.26;-10.86;-10.84;-60.04;81.45;-118.82;1
-4.69;-11.88;-11.03;-60.5;84.18;-115.27;1
-6.49;-13.19;-11.14;-54.4;88.97;-107.63;1
-8.56;-13.97;-10.46;-44.54;86.64;-97.82;1
-10.06;-13.08;-9.49;-32.78;74.16;-87.3;1
-11.13;-11.34;-7.31;-16.96;62.15;-78.92;1
-12.86;-9.89;-4.2;6.3;62.2;-66.95;1
-14.8;-8.16;-2.12;39.01;52.87;-43.19;1
-15.45;-6.64;-2.62;68.82;24.39;-9.6;1
-14.06;-6.02;-5.26;84.37;-1.21;28.54;1
-12.08;-6.39;-8.05;86.56;-27.97;66.53;1
-10.96;-7.32;-9.56;82.31;-71.51;103.12;1
-10.75;-9.62;-11.13;76.46;-136.54;141.79;1
-10.12;-13.43;-12.66;70.97;-186.06;176.5;1
-8.77;-19.41;-13.2;50.47;-182.47;181.37;1
-4.49;-19.55;-11.86;27.16;-131.95;171.5;1
-0.52;-19.55;-8.25;50.48;-71.3;169.21;1
2.03;-19.55;-7.29;115.64;-92.47;166.67;1
4.16;-19.55;-11.09;148.08;-144.45;174.54;1
4.69;-18.94;-14.74;146.4;-156.14;176.83;1
5.87;-18.74;-17.36;136.27;-128.89;175.52;1
6.45;-17.71;-16.87;116.7;-62.79;159.63;1
4.64;-15.78;-12.1;106.08;-9.54;158.39;1
4.75;-14.43;-8.96;110.9;16.25;163.34;1
5.15;-13.51;-8.83;117.37;22.31;157.11;1
3.36;-11.65;-9.77;112.82;4.23;143.07;1
1.93;-9.7;-10.44;100.96;-15.23;138.8;1
1.67;-8.61;-10.45;88.91;-27.56;138.79;1
3.08;-7.69;-10.34;85.14;-36.46;131.18;1
3.82;-6.82;-10.87;81.85;-39.68;115.82;1
3.93;-5.83;-11.77;71.62;-42.17;96.48;1
3.78;-5.02;-12.38;55.42;-44;81.08;1
3.56;-4.69;-12.2;38.64;-46.3;63.25;1
3.7;-4.25;-12.17;25.58;-49.27;41.31;1
3.22;-3.19;-12.48;13.86;-52.46;21.25;1
2.9;-1.89;-11.98;3.07;-57.73;-1.89;1
2.63;-0.84;-11.94;-8.37;-57.78;-30.6;1
1.78;-0.02;-11.31;-21.29;-47.37;-50.9;1
0.58;0.13;-9.82;-37.47;-47.82;-65.02;1
-0.48;-1.12;-7.35;-53.11;-55.81;-74.31;1
-2.13;-3.37;-5.69;-59.5;-34.73;-75.43;1
-4.23;-5.45;-5.64;-63.76;12.31;-70.69;1
-6.39;-6.47;-7.05;-78.32;44.28;-48.22;1
-4.62;-7.72;-6.1;-103.12;53.19;-29.3;1
-6.84;-10.54;0.85;-125.61;127.62;-2.92;1
-5.6;-12.73;-1.69;-116.73;211.5;19.08;1
-1.13;-12.73;-18.45;-105.76;213.87;19.99;1
2.16;-16.2;-19.01;-109.16;139.79;-8.48;1
7.57;-19.55;-14;-118.5;60.23;-34.03;1
1.36;-19.55;-1.17;-64.39;28.57;-63.5;1
-1.63;-17.13;-2.38;28.21;22.06;-44.84;1
0.88;-9.04;-8.52;40.17;-6.74;-44.93;1
1.15;-5.51;-11.71;12.33;-19.29;-55.07;1
1.5;-5.58;-13.55;-10.73;-18.77;-63.82;1
3.01;-6.9;-13.72;-30.86;-7.54;-78.95;1
3.55;-9.72;-13.48;-47.39;12.09;-98.06;1
3.22;-12.87;-12.89;-52.63;60.14;-113.81;1
0.29;-14.82;-12.63;-45.31;87.8;-118.06;1
-1.32;-14.44;-13.16;-37.24;91.48;-104.95;1
-2.06;-13.35;-13.18;-41.26;82.98;-93.75;1
-2.91;-11.96;-13.33;-47.09;70.1;-86.18;1
-3.26;-10.7;-13.19;-54.02;65.37;-78.98;1
-2.88;-9.7;-12.98;-64.05;69.08;-72.3;1
-2.46;-8.66;-12.77;-73.6;65.18;-73.56;1
-1.66;-8.44;-11.01;-75.36;54.17;-81.51;1
-2.41;-9.13;-10.47;-68.86;32.66;-86.91;1
-0.85;-9.79;-10.68;-62.68;14.38;-102.6;1
-0.21;-10.47;-10.35;-54.73;-0.78;-115.6;1
-0.5;-10.78;-10.71;-49.76;-1.75;-116.61;1
-0.12;-11.09;-10.94;-52.9;17.57;-113.62;1
-0.06;-11.06;-11.09;-58.13;32.52;-112.83;1
-0.08;-11.1;-11.08;-60.73;39.65;-112.24;1
-0.23;-11.25;-10.61;-60.74;40.26;-114.62;1
-1.14;-11.6;-10.07;-55.97;41.76;-120.59;1
-3.72;-12.32;-9.78;-48.47;47.51;-123;1
-5.05;-12.26;-10.14;-40.79;59.96;-116.63;1
-5.15;-11.45;-10.53;-34.29;65.6;-106.73;1
-4.43;-10.61;-10.69;-28.99;68.04;-96.82;1
-3.22;-10.12;-10.14;-27.49;69.55;-95.65;1
-4.18;-10.65;-7.85;-27.21;63.35;-99.21;1
-8.4;-11.7;-5.17;-11.88;53.42;-92;1
-11.8;-11.47;-3.9;16.78;50.5;-66.98;1
-13.36;-10.11;-4.37;48.73;48.82;-32.53;1
-13.14;-8.42;-5.51;76.21;62.95;-6.21;1
-12.05;-6.92;-7.63;84.24;63.8;27.72;1
-11.49;-7.36;-10;85.07;23.03;61.12;1
-11.59;-9.01;-12.48;84.02;-40.07;100.94;1
-11.22;-11.35;-13.8;82.79;-94.23;137.67;1
-9.85;-13.69;-13.62;74.79;-127.42;168.9;1
-6.03;-16.46;-13.09;53.51;-117.97;190.01;1
-1.52;-18.32;-11.79;28.99;-99.85;198.11;1
2.35;-19.4;-9.99;22.03;-82.66;177.87;1
2.89;-19.29;-6.98;67.57;-75.9;163.62;1
3.8;-18.84;-10.33;121.75;-80.79;160.98;1
3.61;-18.78;-11.37;121.97;-90.24;156.77;1
1.72;-17.22;-12.19;107.76;-106.71;162.77;1
0.7;-15.61;-12.36;98.85;-97.56;177.63;1
5.98;-19.55;-13.91;88.64;-56.08;181.31;1
7.78;-17.85;-11.26;95.74;-20.48;153.53;1
6.63;-14.25;-9.74;103.79;-13.52;142.63;1
5.34;-11.84;-9.98;103.34;-8.76;145.44;1
4.54;-10.69;-9.98;96.86;-20.49;140.96;1
3.47;-9.43;-10.4;89.16;-41.28;136.61;1
2.36;-8.32;-10.84;82.51;-67.71;129.33;1
2.5;-7.22;-10.9;76.36;-83.65;125.54;1
3.14;-6.39;-11.14;70.63;-93.78;115.74;1
3.92;-5.7;-11.72;64.95;-93.25;101.82;1
4.78;-4.8;-12.63;55.94;-79.83;86.21;1
5.44;-3.84;-13.73;41.34;-54.98;68.29;1
6.12;-2.78;-14.59;21.17;-28.59;46.28;1
6.37;-1.59;-14.96;-0.74;-7.47;23.8;1
6.91;-0.64;-14.5;-22.89;12.87;0.73;1
6.94;-0.17;-13.82;-45.66;31.62;-31.01;1
4.88;-0.6;-12.94;-70.14;41.67;-56.52;1
2.54;-1.78;-8.78;-95.91;16.18;-77.35;1
0.89;-3.22;-2.35;-103.38;-30.55;-92.12;1
-4.33;-5.85;1.27;-82.53;-81.9;-103.4;1
-9.05;-7.64;0.35;-53.7;-103.64;-106.04;1
-13.63;-10.26;-3.39;-40.13;-97.82;-93.04;1
-17.79;-11.09;-9.86;-71.54;-71.09;-71.55;1
-19.5;-13.95;-9.93;-120.88;13.67;-21.77;1
-11.08;-14.31;-8.06;-106.73;106.87;20.33;1
-3.95;-11.88;-9.79;-62.39;190.05;22.96;1
1.62;-10.03;-10.57;-54.02;205.94;32.59;1
10.17;-16.12;-9.29;-97.47;133.08;24.89;1
11.26;-19.55;6.37;-95.4;86.87;-4.17;1
-4.48;-19.55;6.8;64.57;67.88;23.37;1
-2.78;-12.87;-7.51;125.3;8.77;40.15;1
-0.36;-2.33;-14.97;93.81;17.89;65.44;1
4.39;3.28;-17.44;14.25;16.34;68.39;1
9.06;5.3;-16.77;-26.09;22.66;30.73;1
10.88;3.57;-15.38;-10.82;49.88;-22.02;1
9.18;-0.72;-14.4;-1.76;55.62;-76.66;1
5.04;-5.74;-14.49;-9.61;70.99;-121.68;1
1.33;-11.8;-15.7;-30.21;77.61;-153.44;1
-1.9;-17.42;-16.12;-53.4;59.99;-174.72;1
-6.85;-19.55;-14.55;-66.92;11.5;-160.27;1
-10.73;-19.55;-12.01;-69.43;6.03;-93.17;1
-9.81;-16.61;-11.28;-48.6;31.03;-37.53;1
-4.84;-10.87;-12.25;-38.28;20.67;-25.85;1
-0.76;-8.89;-13.43;-45.88;0.59;-33.81;1
1.62;-8.51;-13.67;-62.33;-19.69;-51.51;1
2.62;-8.6;-13.3;-74.07;-28.8;-74.92;1
2.23;-8.69;-12.17;-76.91;-20.81;-91.02;1
2.5;-9.44;-11.49;-76.3;-7.33;-104.5;1
3.06;-10.54;-11.4;-75.95;2.04;-117.79;1
4.36;-11.67;-11.67;-76.35;22.38;-129.64;1
3.92;-13.37;-12.2;-77.89;35.27;-140.23;1
2.21;-14.33;-11.8;-85.2;47.09;-140.43;1
0.8;-14.39;-10.8;-88.18;60.54;-134.23;1
-0.62;-14.05;-9.82;-86.81;60.82;-129.82;1
-1.85;-13.24;-8.57;-79.75;64.59;-129.88;1
-3.22;-12.83;-8.96;-64.91;60.74;-129.68;1
-4.75;-13.09;-10.26;-54.52;64.32;-123.01;1
-5.63;-12.75;-11.2;-45.4;85.36;-110.74;1
-5.69;-12.54;-10.3;-38.28;114.54;-105.36;1
-7.44;-11.85;-7.45;-21.84;131.25;-102.26;1
-11.2;-9.79;-4.56;5.52;115.32;-85.17;1
-14.85;-7.59;-3.97;33.79;93.08;-61.44;1
-16.93;-5.84;-5.09;58.69;71.06;-28.04;1
-15.74;-4.21;-6.65;76.54;48.5;13.3;1
-12.02;-4.39;-7.16;84.82;17.56;41.67;1
-12.16;-5.59;-8.45;80.62;-20.78;84.96;1
-12.29;-9.23;-11.04;73.85;-78.07;130.14;1
-12.02;-13.03;-12.97;71.47;-144.46;169.67;1
-8.93;-16.27;-13.4;61.24;-191.68;193.77;1
-4.04;-19.55;-13.7;40.69;-173.58;187.66;1
0.29;-19.55;-12.53;35.2;-134.46;165.6;1
2.37;-19.55;-10.15;65.04;-106.33;152.08;1
4.39;-18.87;-9;118.86;-107.13;159.56;1
6.42;-18.01;-10.88;136.13;-108.55;167.09;1
5.71;-17.07;-12.1;137.49;-105.64;169.27;1
6.13;-17.23;-13.87;131.39;-69.35;172.99;1
9.86;-18.1;-14.91;110.49;-1.39;140.57;1
6.33;-12.59;-12.01;101.24;22.8;120.37;1
4.7;-10.92;-10.42;98.79;34.8;127.25;1
4.45;-10.01;-10.38;95.97;46.99;129.37;1
2.74;-9.37;-10.62;88.53;38.41;120.89;1
1.24;-8.78;-11.2;77.25;16.93;116.33;1
-0.08;-8.42;-11.02;62.79;-12.36;114.08;1
-0.16;-8.01;-10.91;51.15;-44.23;114.32;1
0.89;-8.07;-10.88;44.79;-69.4;110.97;1
2.55;-7.6;-11.47;39.27;-83.14;100.48;1
4.09;-6.4;-12.54;31.6;-82.33;84.15;1
5.32;-5.28;-13.44;18.6;-72.32;64.05;1
6.07;-4.13;-13.97;2.64;-61.08;40.54;1
6.23;-2.82;-13.89;-11.54;-50.71;15.81;1
6.71;-1.55;-13.02;-23.21;-33.23;-7.85;1
5.55;-1.4;-12.05;-33.99;-20.61;-34.47;1
2.89;-2.12;-9.52;-38.07;-13.44;-45.38;1
1.47;-2.18;-8.26;-48.69;-39.1;-67.86;1
-1.45;-2.94;-5.4;-68.54;-81.98;-79.64;1
-3.74;-4.52;-1.95;-74.11;-120.35;-86.85;1
-8.94;-9.15;-0.57;-58.25;-98.97;-96.5;1
-14.55;-11.06;-4.39;-54.36;-36.62;-94.34;1
-19.7;-14.24;-5.79;-67.02;7.09;-57.87;1
-17.79;-16.41;-5.2;-68.7;18.12;-3.61;1
-9.15;-12.52;-6.11;-45.47;30.96;19.68;1
-5.29;-9.64;-8.63;-16.3;102.78;33.05;1
0.02;-8.57;-10.25;-6.78;170.42;49.46;1
8.28;-12.26;-11.03;-58.95;144.24;58.63;1
15.94;-19.55;-4.76;-110.92;108.96;55.45;1
5.24;-19.55;9.2;42.82;43.67;35.18;1
3.11;-11.67;-8.53;131.43;26.77;17;1
0.93;-2.97;-17.88;94.08;54.63;26.92;1
1.23;-0.84;-21.73;34.77;49.91;40.49;1
3.52;0.58;-20.27;-8.06;25.71;31.07;1
8.51;0.84;-18.76;-43.88;42.77;1.43;1
9.81;-2.04;-15.23;-69.77;61.93;-62.43;1
5.84;-8.88;-12.45;-77.32;68.56;-119.4;1
0.72;-15.4;-10.75;-67.07;74.57;-152.23;1
-4.39;-19.55;-10.1;-39.11;46.96;-160.38;1
-8.16;-19.55;-10.47;-15.93;-19.24;-130.66;1
-10.17;-17.77;-11.24;-14.92;-34.35;-68.79;1
-6.68;-11.33;-12.94;-21;-9.7;-30.53;1
-1.18;-9.4;-14.73;-43.22;-7.15;-25.31;1
1.6;-8.17;-14.02;-67.37;-7.97;-34.85;1
2.2;-7.85;-14.14;-90.11;-2.39;-46.69;1
2.9;-8.52;-12.24;-97.08;12.95;-66.83;1
2.55;-9.26;-10.14;-83.22;30.96;-89.66;1
2;-9.78;-9.98;-62.86;38.19;-110.09;1
0.84;-10.26;-10.64;-52.38;33.4;-117.61;1
0.82;-11.03;-12.08;-55.59;31.03;-121.98;1
0.15;-12.93;-12.29;-67.31;22.67;-123.14;1
0.06;-14.28;-12.01;-78.09;20.55;-117.95;1
0.18;-14.35;-9.82;-77.06;33.8;-112.4;1
-0.39;-13.69;-8.67;-59.5;36.67;-111.78;1
-1.03;-12.27;-8.83;-44.37;42.24;-118.39;1
-3.27;-11.57;-9.36;-37.49;52.61;-119.95;1
-5.9;-10.84;-10.06;-45.46;52.51;-106.71;1
-7.46;-11.53;-9.81;-58.28;62.5;-88.55;1
-7.52;-12.36;-8.32;-57.97;76.87;-75.41;1
-7.39;-12.14;-6;-31.16;82.83;-68.13;1
-8.55;-11.25;-4.75;8.35;86.92;-61.01;1
-10.33;-9.62;-4.57;35.39;77.25;-51.33;1
-12.25;-7.28;-4.21;45.84;60.42;-32.28;1
-13.24;-4.86;-3.85;52.13;41.77;1.05;1
-12.24;-3.9;-4.77;63.06;23.61;41.15;1
-9.6;-4.46;-7.01;79.43;-0.23;79.39;1
-8.16;-6.88;-9.47;91.01;-39.79;112.03;1
-8.7;-11.85;-12.95;105.98;-93.94;147.63;1
-8.83;-18.35;-15.52;114.48;-119.63;176.98;1
-8.13;-19.55;-15.91;76.85;-116.72;155.9;1
-4.41;-19.55;-13.29;34.65;-95.21;145.12;1
-2.14;-14.57;-8.71;32.72;-68.83;154.6;1
0.71;-17.17;-4.31;85.37;-103.89;168.21;1
4.09;-18.92;-9.57;133.5;-112.07;172.61;1
4.81;-19.55;-12.48;144.27;-96.71;167.57;1
5.95;-19.55;-14.85;130.45;-58.58;159.79;1
6.92;-17.01;-15.23;112.48;-1.45;138.95;1
5.6;-12.75;-12.5;99.95;34.55;128.67;1
4.14;-11.77;-10.09;94.89;36.65;131.88;1
3.35;-11.74;-9.36;94.4;29.58;130.01;1
1.39;-10.64;-9.1;94.47;8.4;125.44;1
-0.42;-9.52;-9.63;88.47;-16.49;129.39;1
-1.16;-8.96;-10.05;76.95;-45.09;133.76;1
0.4;-8.34;-10.78;67.12;-68.41;133.18;1
2.48;-7.35;-11.44;58.97;-80.51;121.14;1
3.73;-6.06;-12.23;51.54;-80.78;103.79;1
4.66;-4.97;-13.08;41.4;-72.61;84.05;1
5.19;-3.88;-13.63;26.19;-61.37;61.57;1
4.68;-2.77;-13.37;7.45;-55.52;36.92;1
3.79;-1.64;-13.06;-8.76;-51;15.03;1
3.3;-0.87;-12.58;-22.33;-44.14;-3.84;1
2.66;-0.22;-11.92;-37.27;-40.71;-23.7;1
2.13;-0.18;-10.28;-49.52;-39.04;-43.95;1
-0.11;-1.31;-7.03;-61.09;-49.54;-51.24;1
-2.55;-1.85;-4.26;-71.08;-71.52;-61.46;1
-5.89;-3.84;-0.19;-69.96;-98.02;-65.3;1
-7.87;-6.47;1.09;-59.51;-113.76;-62.1;1
-9.48;-8.13;-1.59;-55.21;-97.26;-57.28;1
-10.92;-10.27;-6.67;-72.9;-59.48;-49.75;1
-8.24;-11.97;-10.53;-106.79;-8.16;-44.82;1
-6.55;-13.12;-9.82;-115.11;100.3;-19.17;1
-2.76;-12.4;-9.05;-92.51;241.21;-4.87;1
-0.01;-12.3;-10.55;-74.74;254.27;8.44;1
7.46;-17.16;-13.58;-92.12;131.27;28.12;1
14.44;-19.55;-10.12;-118.73;9.25;13.67;1
1.26;-19.55;-2.09;6.65;2.36;-40.79;1
-4.44;-19.3;-7.71;51.75;10.77;-40.21;1
-3.56;-11.25;-13.29;42.23;24.96;4.73;1
4.88;-4.66;-14.49;12.1;21.08;33.84;1
11.14;-0.5;-14.07;-32.46;22.67;8.44;1
12.67;-1.32;-14.76;-46.24;55;-43.98;1
10.94;-5.27;-15.13;-41.23;93.91;-98.87;1
6.62;-9.39;-14.73;-46.46;98.58;-132.28;1
2.22;-12.05;-14.03;-56.11;109.43;-137.95;1
-1.13;-14.52;-13.46;-57.92;117.55;-134.14;1
-4.57;-18.04;-12.95;-55.86;102.86;-123.83;1
-8.32;-16.39;-11.44;-54.43;86.61;-104.27;1
-8.49;-11.92;-10.47;-48.42;86.32;-82.2;1
-6.26;-9.51;-11.36;-40.99;68.69;-74.56;1
-5.05;-8.17;-12.61;-35.47;46.11;-75.41;1
-3.82;-6.38;-13.78;-37.82;26.96;-76.97;1
-2.33;-4.68;-13.91;-50.7;12.14;-81.93;1
-0.3;-4.4;-13.56;-68.56;-1.15;-94.79;1
1.64;-6.14;-13.12;-82.95;-14.04;-110.21;1
2.65;-8;-12.53;-89.7;-20.6;-125.96;1
2.2;-10.57;-11.18;-95.18;-13.44;-133.12;1
1.13;-12.96;-9.24;-95.06;-1.54;-125.85;1
0.2;-13.64;-7.28;-78.8;2.77;-111.31;1
0.65;-12.35;-7.64;-55.58;18.73;-106.03;1
0.04;-10.54;-9.55;-39.5;41.83;-108.08;1
-1.45;-10.46;-11.55;-35.92;52.19;-104.79;1
-2.41;-10.94;-11.95;-41.76;61.48;-100.6;1
-3.98;-11.71;-10.53;-46.26;56.09;-96.94;1
-6.88;-12.47;-8.58;-36.52;60.86;-95.67;1
-10.68;-12.18;-8.65;-17.11;60.77;-82.53;1
-13.03;-11.55;-9.79;-1.61;45.59;-60.74;1
-13.77;-10.56;-9.64;9.14;25.93;-31.96;1
-12.92;-9.88;-8.03;16.69;16.87;-2.78;1
-11.89;-10.09;-5.84;31.66;18.8;18.85;1
-11.19;-9.7;-5.14;51.18;19.65;42.96;1
-11.13;-9.71;-5.39;72.26;14.5;65.4;1
-10.6;-10.46;-5.44;97.2;-6.22;88.7;1
-9.66;-12.27;-6.55;116.72;-25.07;114.65;1
-8.15;-14.03;-7.71;122.82;-35.33;139.12;1
-6.93;-14.01;-10.25;118.58;-52.37;159.89;1
-3.72;-14.02;-12.28;99.19;-63.59;175.96;1
-1.39;-16.13;-13.46;79.21;-109.88;193.46;1
1.28;-19.55;-14.42;68.76;-165.76;187.75;1
3.47;-19.55;-13.62;71.19;-175.74;166.87;1
3.13;-19.5;-10.17;107.84;-137.59;157.79;1
3.19;-17.85;-10.81;139.63;-101.84;160.37;1
2.85;-19.24;-12.77;142.08;-75.09;158.71;1
4.3;-18.68;-14.36;132.2;-42.07;154.35;1
4.95;-16.65;-15;119.53;-10.04;145.73;1
4.16;-13.18;-13.7;102.53;8.16;154.91;1
4;-12.06;-11.97;89.16;28.05;164.83;1
4.56;-11.68;-10.36;86.03;29.67;157.54;1
4.07;-10.43;-9.63;84.63;13.55;146.41;1
3.44;-8.98;-9.82;79.99;-6.05;136.21;1
3.63;-8.04;-10.11;69.25;-30.01;123.5;1
3.78;-6.71;-10.46;57.72;-53.26;108.67;1
3.84;-5.58;-11.1;48.35;-69.24;90.57;1
4.23;-4.27;-11.88;37.54;-73.53;72.5;1
5;-3.13;-12.59;24.97;-62.56;50.83;1
5.44;-2.08;-13.05;10.3;-43.46;24.89;1
4.76;-1.41;-12.8;-7.96;-25;1.86;1
5.11;-0.83;-11.63;-20.85;-8.07;-35.01;1
2.21;-1.27;-9.45;-26.62;-12.86;-68.66;1
-1.1;-2.17;-6.12;-37.58;-55.84;-82.74;1
-2.98;-3.33;-3.42;-39.37;-97.32;-81.44;1
-4.3;-4.47;-1.96;-25.24;-99.98;-77.76;1
-7.2;-5.9;-3.59;-8.18;-79.68;-77.75;1
-10.68;-6.5;-7.66;-24.57;-50.85;-64.11;1
-13.01;-7.61;-12.02;-81.55;6.92;-24.03;1
-13.78;-8.43;-12.92;-136.95;118.29;18.68;1
-6.38;-9.16;-7.42;-150.65;237.59;41.2;1
2;-7.85;1.13;-141.36;254.27;38.99;1
10.54;-12.33;4.99;-74.85;95.48;8.95;1
11.45;-19.55;-6.61;-22.25;80.99;-39.45;1
4.19;-19.55;-13.08;-16.82;53.16;-49.01;1
-2.87;-19.55;-15.37;-7.4;30.83;-55.48;1
-5.33;-12.76;-14.08;21.37;61.83;-15.69;1
0.47;-6.28;-13.47;14.6;31.9;11.08;1
3.17;-2.89;-13.75;-13.72;17.55;-3.84;1
5.04;-3.46;-15.31;-28.52;24.97;-37.98;1
5.02;-5.48;-15.24;-41.37;21.87;-81.64;1
4.15;-10.02;-15.13;-59.36;3.71;-114.63;1
1.21;-13.97;-14.56;-71.06;6.2;-127.27;1
-0.59;-16.13;-13.92;-71.37;26.28;-125.94;1
-2.1;-16.91;-12.47;-65.2;34.3;-111.92;1
-2.38;-15.45;-11.14;-63.15;36.28;-94.38;1
-1.36;-12.56;-10.11;-61.73;29.76;-82.91;1
-0.29;-10.8;-10.02;-55.31;30.79;-78.63;1
0.75;-9.44;-10.96;-49.11;49.05;-79.14;1
1.28;-8.94;-12.86;-49.11;59.72;-87.88;1
1.53;-9.02;-14.43;-57.04;64.56;-102.3;1
1.61;-9.6;-14.64;-66.76;61.18;-121.17;1
1.1;-11.36;-14.14;-76.81;41.51;-139.98;1
-0.45;-12.95;-13.51;-85.82;14.34;-151.34;1
-2.43;-14.44;-12.29;-89.78;-10.65;-145.33;1
-2.8;-13.86;-10.79;-90.24;-7.41;-122.98;1
-1.93;-11.39;-10.08;-87.16;2.19;-109.3;1
-0.51;-10.55;-9.76;-83.42;6.11;-110.24;1
1.25;-10.83;-8.06;-78.76;4.1;-119.18;1
0.87;-12.02;-6.59;-61.19;-4.46;-132.19;1
-1.83;-11.96;-6.31;-45.3;25.76;-133.78;1
-4.41;-11.23;-6.28;-39.99;75.51;-127.53;1
-9.08;-11.14;-5.96;-29.64;120.96;-114.59;1
-13.35;-11.34;-6.22;4.05;137.77;-90.1;1
-15.63;-10.63;-8.02;46.14;137.45;-57.25;1
-16.49;-7.85;-9.2;58.99;116.15;-22.96;1
-15.55;-5.36;-8.6;43.85;80.35;10.41;1
-13.48;-5.87;-5.13;34.25;42.81;29.34;1
-12.37;-6.81;-3.57;56.77;1.72;59.63;1
-10.57;-7.63;-5.25;93.65;-23.97;83.63;1
-9.77;-9.24;-7.8;118.17;-37.97;107.73;1
-10.29;-11.87;-11.14;126.99;-62.18;136.18;1
-9.91;-13.53;-13.68;111.9;-99.44;169.77;1
-7.54;-15.47;-14.85;88.44;-147.73;199.73;1
-3.66;-19.33;-16.09;65.81;-175.59;208.51;1
1.09;-19.55;-17.51;35.75;-182.67;181.34;1
3.92;-19.55;-16.04;27.22;-141.17;153.66;1
2.94;-19.55;-8.04;73.95;-88.3;162.99;1
4.26;-19.55;-7.01;136.48;-140.15;185.87;1
5.92;-19.55;-11.31;142.03;-126.78;183.7;1
10.37;-19.55;-14.22;133.97;-58.52;170.38;1
9.8;-14.88;-13.5;124.66;-15.77;133.17;1
8.11;-10.55;-13.65;112.57;2.48;127.89;1
5.93;-8.75;-12.61;94.11;22.36;132.11;1
5.28;-8.81;-11.75;87.01;37.7;132.33;1
4.75;-8.32;-10.81;80.41;34.61;122.77;1
3.66;-7.69;-10.61;71.1;17.89;114.32;1
1.92;-7.19;-10.28;62.27;-7.51;110.18;1
2.21;-6.62;-9.97;49.92;-30.61;104.61;1
2.56;-5.8;-9.9;40.81;-52.55;96.79;1
3.35;-4.91;-10.49;33.33;-64.29;87.86;1
4.25;-4.05;-11.97;25.76;-58.37;72.73;1
4.96;-3.19;-13.01;14.74;-51.03;52.89;1
5.68;-1.98;-13.22;-3.47;-45.75;27.09;1
4.98;-1.07;-12.58;-27.1;-32.5;-0.51;1
4.6;-1;-11.1;-47.45;-5.75;-28.2;1
3.52;-1.22;-7.7;-54.03;8.12;-81.7;1
-2.02;-3.31;-4.83;-43.84;4.66;-115.86;1
-6.5;-4.93;-3.76;-30.55;-13.45;-130.83;1
-10.01;-6.93;-4.35;-21.56;-52.73;-132.08;1
-13.43;-10.16;-7.71;-32.38;-87.15;-113.93;1
-17.77;-14.39;-7.18;-61.98;-113.97;-72.01;1
-17.07;-16.74;-6.59;-83.02;-110.67;-5.38;1
-9.89;-12.9;-4.38;-79.6;-41.56;38.04;1
-3.73;-9.78;-1.3;-58.63;84.39;55.6;1
0.54;-7.74;2.48;-55.36;144.22;59.2;1
6.78;-11.36;0.07;-88.05;134.49;75.69;1
17.82;-19.55;-7.44;-66.73;92.43;45.74;1
13.74;-19.55;-14.89;-3.13;100.33;12.37;1
4.72;-10.99;-18.21;45.49;64.28;-9.72;1
2.61;-6.83;-19.33;62.63;87.06;-8.66;1
4.07;-3.97;-18.6;36.36;71.12;-3.37;1
5;-0.95;-17.51;-29.94;72.95;-27.37;1
6.09;-4.01;-16.83;-82.29;64.34;-68.53;1
4.84;-11.69;-15.44;-98.82;46.8;-114.69;1
1.44;-18.48;-13.48;-89.11;35.16;-146.22;1
-3.94;-19.51;-10.46;-54.05;19.09;-141.71;1
-6.14;-18.19;-10.85;-21.98;5.49;-115.01;1
-5.56;-14.99;-12.05;-16.47;13.81;-84.53;1
-2.72;-10.85;-12.67;-35.72;12.1;-65.46;1
-0.88;-8.87;-13.02;-55.68;13.97;-60.14;1
0.43;-7.47;-12.61;-65.92;34.12;-57.27;1
1.4;-7.02;-12.92;-70.21;47.87;-59.13;1
2.78;-6.72;-13.18;-76.2;56.87;-74.92;1
3.04;-7.51;-12.68;-83.08;55.57;-101.24;1
1.75;-9.25;-11.81;-85.53;40.38;-125.21;1
-0.13;-10.85;-11.03;-77.45;33.11;-133.82;1
-1.76;-12.44;-10.56;-67.92;22.88;-134.21;1
-2.56;-12.97;-10.76;-61.67;17.81;-122.12;1
-2.24;-11.48;-11.19;-61.82;24.05;-107.98;1
-1.48;-11.17;-11.77;-66.6;26.62;-98.58;1
-0.09;-11.07;-11.44;-69.38;31.06;-97.83;1
0.39;-11.16;-9.67;-66.07;27.16;-98.69;1
0.01;-11.88;-7.72;-50.18;23.3;-104.05;1
-2.48;-12.45;-7.44;-32.86;44.29;-109.09;1
-4.93;-11.57;-8.01;-29.13;76.87;-105.65;1
-6.28;-11.23;-7.95;-29.08;96.7;-100.16;1
-9.37;-12.09;-7.5;-12.34;96.6;-94.6;1
-13.67;-12.04;-7.92;21.27;90.14;-74.43;1
-15.75;-10.15;-8.26;42.9;84.01;-46.4;1
-16.41;-7.13;-7.04;44.53;65.58;-14.64;1
-15.88;-5.24;-5.39;42.38;33.51;17.5;1
-15;-5.13;-3.95;57.21;-6.01;46.78;1
-12.48;-5.82;-4.86;86.49;-37.39;71.82;1
-10.4;-7.76;-6.58;107.62;-43.49;98.7;1
-9.51;-11.97;-8.78;121.37;-37.97;131.42;1
-8.82;-14.43;-11.95;116.28;-64.59;170.27;1
-7.4;-17.11;-14.66;94.06;-121.06;195.84;1
-3.48;-19.55;-16.68;64.37;-161.57;194.9;1
1.45;-19.55;-17.36;31.25;-173.8;171.38;1
2.28;-19.48;-14.66;28.34;-160.66;159.82;1
0.59;-18.71;-6.58;79.06;-124.56;175.13;1
3.55;-19.55;-9.22;128.82;-118.27;185.47;1
4.32;-19.55;-11.77;135.92;-112.67;176.96;1
4.95;-19.55;-14.5;127.47;-94.78;174.04;1
8.78;-19.55;-16.1;110.57;-40.57;157.05;1
9.38;-14.55;-14.71;99.93;5.57;142.34;1
7.69;-11.77;-12.12;87.08;18.03;132.69;1
5.25;-10.57;-10.61;82.52;20.58;124.3;1
4.92;-10.18;-10.84;77.17;26.4;112.78;1
3.13;-8.56;-10.83;63.06;5.32;102.47;1
1.84;-8.1;-10.62;47.77;-26.09;96.73;1
2.28;-7.2;-10.7;34.4;-54.03;90.41;1
3.09;-5.87;-10.74;27.24;-83.37;81.75;1
4.12;-4.73;-11.01;24.09;-100.35;70.17;1
5.25;-3.76;-11.78;18.92;-102.25;54.15;1
6;-2.28;-13.15;8.32;-86.07;33.43;1
4.48;-1.41;-14.53;-9.42;-60.79;23.26;1
7.45;-0.05;-13.43;-29.78;-30.93;-2.4;1
7.72;0.6;-12.56;-53.18;-1.32;-40.33;1
6.42;-0.58;-12.09;-78.81;24.61;-74.41;1
5.12;-1.92;-10;-106.11;19.54;-107;1
5.54;-3.99;-3.37;-121.09;-23.64;-128.13;1
1.88;-8.2;3.75;-68.74;-63.68;-146.14;1
-4.8;-11.76;3.32;-24.29;-88.35;-163.31;1
-12.31;-13.73;-5.02;4.45;-54.13;-161.37;1
-18.61;-16.34;-15.46;-64.66;-21.06;-161.81;1
-19.7;-19.55;-11.44;-134.92;143.34;-63.25;1
-18.84;-17.44;-4.51;-105.79;233.61;45.33;1
-11.95;-9.64;-8.39;-45.35;254.27;88.7;1
-5.69;-2.46;-12.18;-14.91;254.27;122.55;1
7.3;-3.79;-12.63;-60.06;227.2;137.25;1
19.52;-19.55;-13.13;-167.43;-10.02;50.15;1
19.52;-19.55;9.54;-117.38;-163.1;-85.24;1
-3.32;-19.55;4.66;110.43;31.89;-91.83;1
-7.56;-14.78;-10.28;155.21;-66.78;-68.44;1
-8.37;-12.05;-20.65;128.29;-86.05;-21.54;1
-5.7;-3.05;-20.84;65.7;68.36;48.15;1
5.78;-0.24;-21.1;-33.28;119.77;76.6;1
14.22;2.35;-19.68;-96.51;127.57;54.7;1
17.13;0.27;-16.41;-106.05;149.9;-6.46;1
12.47;-3.78;-12.58;-77.77;179.74;-79.44;1
4.1;-8.02;-11.18;-41.87;172.75;-122.72;1
-1.97;-11.57;-11.7;-33.15;93.99;-144.73;1
-3.59;-17.14;-14.31;-59.31;-26.7;-178.63;1
-8.66;-19.55;-14;-92.67;-132.18;-163.17;1
-16.53;-18.72;-9.09;-74.63;-43.85;-88.88;1
-8.36;-8.52;-7.45;-13.79;-25.13;-64.14;1
-2.94;-7.67;-11.84;-0.07;-55.68;-57.47;1
0.39;-7.24;-14.3;-9.07;-53.49;-71.08;1
1.88;-6.65;-14.92;-40.24;-41.46;-79.77;1
3.57;-6.72;-14.39;-73.21;-9.07;-86.11;1
4.39;-9.24;-13.58;-99.61;17.78;-87.92;1
4.24;-12.19;-10.71;-107.06;37.75;-90.3;1
3.76;-13.87;-8.56;-87.26;44.84;-99.3;1
2.22;-12.85;-8.6;-58.91;47.35;-104.98;1
-0.03;-11.01;-9.68;-41.21;56.16;-102.17;1
-2.34;-10.36;-10.59;-36.21;63.71;-94.3;1
-3.79;-10.31;-11.54;-40.73;78.58;-89.57;1
-4.61;-10.2;-11.77;-50.07;91.15;-88.38;1
-5.21;-10.11;-9.84;-52.46;81.97;-87.95;1
-7.8;-11.08;-8.24;-29.34;65.99;-89.23;1
-11.35;-10.9;-7.57;3.94;72.12;-79.73;1
-13.59;-9.05;-6.87;24.19;63.8;-60.72;1
-14.39;-6.98;-5.36;30.69;20.1;-32.15;1
-13.97;-6.33;-3.95;39.75;-10.2;4.17;1
-11.72;-7.19;-4.46;60.49;-10.42;39.76;1
-9.05;-9.09;-5.76;83.46;-8.78;67.65;1
-8.22;-11.5;-8.35;95.37;-17.87;94.07;1
-8.73;-12.52;-11.14;100.01;-60.62;116.99;1
-8.86;-13.89;-13.54;102.31;-132.49;138.47;1
-6.8;-15.59;-14.68;98.46;-173.21;157.5;1
-4.24;-17.54;-14.2;78.59;-139.75;176.16;1
-2.16;-19.55;-12.32;44.16;-85.09;186.22;1
1.1;-19.55;-9.5;37.01;-55.54;183.12;1
3.02;-19.55;-9.64;96.01;-57.64;169.92;1
4.94;-19.55;-12.49;139.4;-68.28;161.06;1
5.16;-19.55;-14.28;130.07;-86.53;156.6;1
3.08;-19.03;-14.78;114.96;-77.79;155.11;1
2.72;-18.89;-14.03;97.74;-48.99;158;1
2.64;-17.53;-12.81;97.49;-37.28;148.1;1
4.55;-14.81;-12.03;98.63;-25.35;151.12;1
7;-13.6;-11.62;90.34;-10.97;141.75;1
6.32;-11.58;-11.35;81.67;-13.91;123.62;1
5.65;-9.09;-11.33;76.53;-9.59;109.7;1
4.19;-7.75;-11.38;68.33;-30;95.7;1
3.37;-6.67;-11.03;60.82;-56.77;86.38;1
3.04;-5.6;-11.15;53.91;-83.36;75.46;1
3.14;-4.3;-11.43;45.82;-97.4;65.79;1
3.68;-2.99;-11.79;35.81;-98.42;54.15;1
5.01;-1.81;-12.29;24.36;-83.37;38.52;1
5.64;-1.11;-13.13;9.08;-59.74;22.15;1
6.48;-0.26;-13.43;-8.56;-31.14;5.41;1
7.25;0.48;-13.22;-26.76;-1.62;-13.88;1
5.25;0.22;-13.15;-50.34;20.29;-27.82;1
6.11;-0.15;-10.92;-66.51;29.99;-62.75;1
3.93;-1.6;-8.26;-75.32;23.24;-92.22;1
1.53;-3.57;-3.69;-72.02;-10.17;-105.95;1
-2.43;-6.3;0.36;-46.75;-61.49;-118.36;1
-8.35;-9.19;1.09;-8.4;-90.97;-119.36;1
-12.53;-11.32;-6.79;-5.4;-72.24;-125.51;1
-18.67;-12.4;-14.99;-68.87;-26.47;-111.17;1
-19.7;-15.13;-12.2;-130.99;94.79;-40.55;1
-16.47;-14.45;-8.31;-127.87;191.52;32.92;1
-9.69;-14.38;-8.43;-69.08;254.27;54.8;1
-5;-12.09;-9.67;-33.27;254.27;69;1
4.71;-16.88;-10.94;-73.94;112.32;76.56;1
13.7;-19.55;-2.92;-122.3;-105.09;52.45;1
6.84;-19.12;9.26;43.22;-77.04;12.5;1
5.23;-9.93;-6.36;109.75;8.33;1.31;1
2.57;-4.97;-17.64;79.93;13.78;-4.89;1
2.9;-1.05;-19.78;30.46;48.98;-7.88;1
6.37;0.48;-18.86;-19.38;43.01;-24.29;1
7.14;-1.6;-18.54;-52.32;55.47;-57.11;1
6.3;-6;-15.93;-70.79;66.61;-92.06;1
3.75;-10.8;-13.71;-76.79;79.09;-112.24;1
0.24;-14.78;-11.34;-65.8;88.72;-118.59;1
-1.77;-17.39;-12.72;-53.37;80.39;-122.63;1
-4.78;-19.38;-13.31;-43.53;48.13;-111.03;1
-7.92;-15.26;-12.66;-40.24;22.06;-93.4;1
-7.19;-10.95;-12.29;-36.3;12.25;-75.11;1
-4.79;-8.2;-12.66;-42.03;-6.97;-64.88;1
-2.33;-6.78;-13.01;-53.3;-19.36;-63.19;1
-0.07;-6.3;-13.38;-66.82;-31.46;-72.43;1
1.58;-6.73;-12.37;-74.46;-48.04;-86.36;1
2.88;-8.34;-11.75;-76.94;-55.76;-102.56;1
3.32;-9.75;-11.57;-79.72;-52.34;-117.08;1
3.28;-12.34;-10.83;-76.39;-38.42;-122.21;1
3.42;-14.33;-10.86;-73.36;-16.71;-118.87;1
3.05;-13.57;-10.57;-76.59;8.77;-112.02;1
1.88;-12.57;-10.05;-77.5;22.31;-101.69;1
1.12;-12.1;-10.48;-73.54;36.71;-99.96;1
0.32;-11.57;-10.43;-70.07;59.09;-98.32;1
-0.71;-11.61;-9.84;-68.46;72.58;-98.51;1
-1.94;-12.31;-9.08;-67.08;82.59;-99.17;1
-3.34;-11.96;-7.73;-50.79;97.63;-104.3;1
-7.92;-12.06;-7.16;-18.29;111.88;-98.25;1
-11.72;-11.5;-8.42;11.88;118.16;-79.82;1
-15.33;-10.82;-8.43;28.22;105.48;-58.33;1
-18.06;-9.52;-6.59;35.78;82.12;-27.48;1
-18.8;-8.05;-4.19;48.41;57.26;12.95;1
-15.3;-8.02;-3.06;74.91;23.43;46.92;1
-12.4;-8.46;-5.6;100.03;-16.51;81.84;1
-9.27;-9.99;-7.58;107.74;-42.97;112.8;1
-8.58;-12.02;-9.46;108;-62.17;144.44;1
-8.01;-13.11;-12.76;93.92;-83.19;171.3;1
-5.4;-14.74;-14.49;67.14;-110.52;187.25;1
-3.39;-17.1;-15.78;18.65;-128.52;198.62;1
-0.22;-19.55;-12.6;3.99;-116.36;185.89;1
1.95;-19.55;-7.34;99.26;-125.75;171.7;1
5.62;-19.55;-10.51;167.14;-102.21;148.08;1
4.57;-18.55;-11.71;157.24;-125.77;144.73;1
3.87;-19.55;-14.11;141.06;-97.19;156.08;1
5.58;-18.85;-14.27;130.03;-40.93;147.33;1
5.97;-16.14;-12.84;123.4;4.96;130.19;1
5.42;-13.97;-11.19;122.08;20.35;137.32;1
5.2;-13.18;-10.75;121.23;24;138.65;1
4.76;-11.67;-10.76;118.93;29.99;136.31;1
3.78;-10.01;-10.45;109.67;24.83;128.39;1
1.86;-8.74;-9.67;99.01;5.02;125.01;1
1.22;-7.66;-9.27;92.15;-20.21;120.34;1
1.71;-6.81;-9.73;84.5;-45.28;115.23;1
2.46;-5.77;-10.65;79.11;-59.89;107.35;1
2.94;-4.97;-11.75;70.84;-62.13;96.62;1
3.28;-4.14;-12.89;58.9;-58.23;79.92;1
3.64;-3.5;-13.49;42.3;-46.19;57.67;1
3.7;-2.5;-13.43;26.3;-34.09;27.58;1
2.74;-1.48;-13.38;13.11;-30.62;2.15;1
2.69;-0.36;-13.08;-4.31;-25.66;-26.98;1
2.29;0.42;-12.81;-21.03;-19.33;-52.14;1
1.24;0.92;-11.64;-43.91;-25.21;-73.93;1
-0.25;0.67;-9.31;-67.6;-45.39;-90.09;1
-1.58;-0.69;-7.56;-84.53;-55.86;-94.87;1
-2.64;-2.91;-6.09;-99.5;-54.32;-96.07;1
-4.76;-5.84;-5.07;-110.44;-42.59;-85.05;1
-6.42;-8.91;-5.08;-122.95;-17.84;-68.25;1
-7.11;-11.77;-6.93;-132.5;33.06;-49.82;1
-5.45;-12.48;-8.99;-151.48;132.96;-17.43;1
-0.86;-10.39;-4.53;-162.11;221.58;5.02;1
2.54;-10.9;-1.34;-139.37;203.12;3.47;1
2.53;-19.55;-7.77;-108.27;167.06;-7.93;1
-3.38;-19.55;-12.71;-55.79;66.53;-8.64;1
-10.07;-19.55;-10.22;7.71;-1.39;-6.85;1
-3.1;-19.28;-7.1;52.24;40.14;13.11;1
2.91;-8.89;-10.48;77.36;12.9;46.05;1
9.79;-4.13;-14.14;36.15;3.88;25.26;1
11.49;1.28;-14.58;1.48;16.93;-21.61;1
8.59;1.64;-15.15;-6.69;43.41;-59.72;1
6.33;-0.58;-16.28;-4.08;78.05;-92.55;1
4.49;-4.82;-17.51;-19.31;91.26;-118.39;1
2.45;-8.57;-17.97;-45.7;85.83;-138.69;1
-0.94;-13.12;-17.27;-71.5;53.98;-162.9;1
-4.38;-18.98;-16.3;-98.47;-7.03;-161.88;1
-8.78;-19.55;-12.85;-126.13;-33.44;-121.14;1
-10.88;-15.2;-6.84;-105.91;28.36;-74.75;1
-5.21;-9.7;-4.4;-49.23;8.28;-58.82;1
-2.88;-8.15;-7.75;-15.24;-4.25;-55.32;1
-1.32;-6.58;-10.96;-10.49;-2.98;-54.82;1
1.25;-5.41;-13.04;-28.21;-0.04;-63.11;1
3.42;-5.36;-13.33;-55.62;1.73;-84.76;1
4.33;-7.14;-12.91;-75.51;1.77;-109.47;1
2.93;-9.67;-11.68;-82.76;19.05;-125.17;1
0.63;-11.95;-11.06;-81.86;40.29;-119.66;1
0.41;-12.41;-10.64;-86;53.36;-109.76;1
0;-11.99;-9.7;-78.01;49.25;-97.14;1
-0.58;-11.36;-10.31;-65.76;52.25;-89.79;1
-1.44;-10.88;-10.2;-58.47;74.39;-86.82;1
-1.23;-10.71;-8.81;-60.05;96.11;-89.57;1
-1.33;-11.32;-7.08;-43.04;84.22;-99.6;1
-6.4;-12.7;-8.31;-2.14;102.56;-99.5;1
-10.99;-13.16;-10.5;24.13;113.11;-90.1;1
-14.18;-12.34;-10.38;26.08;100.09;-75.47;1
-16.09;-10.15;-7.93;19.6;66.48;-49.11;1
-15.65;-7.82;-4.25;27.66;21.54;-19.25;1
-13.36;-6.75;-3.78;47.05;-8.7;3.01;1
-13.4;-7.03;-4.95;67.21;-19.65;31.84;1
-11.6;-8.37;-5.66;92.15;-22.34;61.95;1
-10.09;-10.87;-7.07;115.47;-27.62;87.35;1
-9.82;-13.13;-9.17;129.81;-36.73;112.87;1
-8.86;-12.72;-12.58;124.58;-61.07;136.28;1
-6.92;-12.14;-13.94;104.62;-103.3;159.26;1
-5.69;-13.8;-13.88;71.91;-139.17;194.7;1
-3.07;-18.16;-14.21;33.9;-151.51;222.16;1
2.09;-19.55;-14.24;4.94;-174.96;204.24;1
4.61;-19.55;-8.87;67.55;-138.49;171.02;1
5.98;-19.55;-11.43;173.34;-113.3;162.77;1
6.49;-18.72;-14.05;173.61;-109.3;162.34;1
3.71;-16.05;-14.79;138.84;-98.39;164.49;1
5.23;-19.55;-15.22;104.04;-39.47;171.92;1
7.45;-15.91;-13.24;88.82;25.29;161.47;1
7.21;-12.68;-10.88;88.49;35.45;141.03;1
5.43;-10.14;-11.37;89.04;48.12;128.63;1
4.33;-8.57;-11.74;78.26;50.39;116.21;1
2.38;-6.73;-11.53;63.34;24.25;108.51;1
1.78;-6.06;-11;49.12;-9.12;101.02;1
1.71;-5.61;-10.42;35.76;-43.46;97.99;1
1.71;-5.7;-10.08;25.98;-79;90.37;1
2.19;-5.11;-10.15;19.36;-102.96;81.77;1
2.66;-4.67;-10.74;12.99;-118.2;68.84;1
3.27;-4.37;-12.38;3.71;-117.73;55.9;1
4.37;-3.6;-13.92;-13.44;-107.63;38.73;1
5.48;-2.21;-14.32;-33.46;-91.84;18.63;1
5.13;-1.28;-13.14;-52.85;-66.49;4.68;1
6.98;-1.02;-12.08;-67.67;-34.18;-23.5;1
7.27;-1.38;-9.76;-70.07;-3.89;-64.24;1
3.41;-3.01;-4.97;-55.45;-4.32;-93.58;1
-0.35;-5.02;-2.07;-37.7;-37.18;-102.08;1
-3.64;-6.43;-0.67;-23.82;-81.48;-106.61;1
-9.39;-9.14;-0.13;-13.63;-134.68;-109.54;1
-15.26;-10.35;-4.95;-12.01;-131.26;-76.73;1
-15.23;-10.84;-10.52;-64.83;-80.93;-53.41;1
-17.4;-12.77;-8.18;-125.78;17.09;-2.95;1
-6.79;-12.54;-5.05;-112.5;120.07;14.89;1
-4.17;-10.46;-6.59;-71.31;250.58;21.37;1
-2.2;-8.1;-9.04;-78.74;254.27;46.08;1
8.88;-14.28;-10.52;-139.91;136.81;57.85;1
19.26;-19.55;0.67;-105.14;51.11;-3.78;1
-0.67;-19.55;-2.88;73.38;36.57;-37.58;1
-1.98;-15.01;-11.77;94.91;-25.82;-29.95;1
0.49;-7.01;-16.72;78.94;8.28;11.75;1
4.51;-2.67;-18.51;26.95;31.12;25.89;1
9.59;1.62;-19.35;-39.19;63.86;1.41;1
12.18;0.97;-18.96;-80.9;89.35;-51.68;1
11.77;-4.22;-17.36;-100.01;85.8;-125.34;1
7.3;-10.46;-15.9;-106.06;94.8;-167.41;1
0.91;-14.39;-13.47;-96.39;79.86;-177.46;1
-3.15;-18.81;-12.39;-76.7;60.26;-171.47;1
-7.74;-19.55;-11.38;-63.39;38.73;-140.22;1
-11.21;-16.21;-9.81;-50.62;47.11;-98.59;1
-7.56;-9.73;-9.5;-41.28;51.06;-65.85;1
-4.29;-7.9;-10.85;-43.91;35.12;-53.4;1
-2.12;-6.62;-12.06;-51.57;35.24;-51.35;1
-1.1;-5.69;-12.17;-61.95;27.93;-57.63;1
-0.35;-5.45;-11.32;-68.21;15.76;-68.63;1
0.69;-6.96;-10.37;-65.79;6.38;-84.11;1
0.86;-8.34;-10.29;-55.28;1.93;-96.33;1
0.22;-10.23;-10.57;-46.92;3.96;-100.26;1
-0.61;-11.7;-11.48;-50.95;9.82;-95.8;1
-1.19;-11.29;-11.44;-60.59;17.13;-83.78;1
-0.93;-10.13;-10.89;-64.57;24.93;-72.69;1
-0.22;-9.53;-10.32;-60.35;32.16;-68.62;1
0.25;-10.27;-10.05;-49.04;35.93;-69.03;1
0.85;-11.24;-9.81;-34.52;38.86;-76.69;1
0.59;-11.3;-9.7;-24.06;46.07;-86.76;1
-0.88;-10.44;-8.88;-25.6;63.97;-95.26;1
-4.29;-10.67;-7.81;-29.4;81.38;-96.05;1
-8.29;-11.24;-7.11;-14.44;95.45;-86.88;1
-11.16;-11.38;-7.35;11.08;83.62;-70.5;1
-12.79;-11;-8.26;31.01;64.11;-51.84;1
-12.38;-9.9;-8.11;37.2;49.77;-34.04;1
-13.12;-9.07;-6.54;37.57;41.68;-12.59;1
-13.07;-8.58;-4.01;49.77;30.04;12.99;1
-12.4;-7.97;-2.83;77.04;10.19;39.47;1
-11.63;-8.29;-4.88;107;-15.3;65.57;1
-10.4;-9.63;-7.38;128.02;-52.62;94.24;1
-9.34;-11.56;-9.57;137.11;-75.38;127.29;1
-8.16;-13.74;-13.2;124.8;-89.27;165.86;1
-7.97;-17.31;-15.55;97.19;-120.39;204.13;1
-4.2;-19.55;-17.48;65.92;-143.78;223.98;1
2.95;-19.55;-19.26;23.55;-165.1;197.33;1
6.06;-19.55;-16.35;12.35;-134.79;168.41;1
2.51;-18.45;-5.62;81.08;-106.37;175.12;1
3.95;-19.55;-8.68;142.26;-88.48;186;1
4.34;-19.55;-9.79;138.9;-73.35;172.64;1
6.01;-19.55;-12.9;125.83;-43.31;169.67;1
9.16;-18.06;-14.49;111.82;14.07;146.29;1
7.82;-13.24;-13.34;99.08;32.74;132.86;1
5.25;-10.18;-11.73;89.14;41.46;132.34;1
3.76;-10.32;-10.81;85.54;47.94;127.04;1
3.7;-9.12;-10.24;78.63;35.91;119.05;1
2.49;-8.08;-10.19;67.14;5.58;109.41;1
1.93;-6.71;-10.38;53.15;-32.98;104.8;1
1.95;-5.97;-10.58;43.64;-69.78;97.92;1
2.3;-5.17;-11.04;38.2;-100.01;89.77;1
2.83;-4.45;-11.37;34.34;-123.88;77.34;1
3.83;-3.79;-12.59;29.4;-125.62;61.12;1
4.97;-2.65;-13.83;17.43;-108.86;39.39;1
5.33;-1.47;-14.28;-0.97;-86.44;18.43;1
6.44;0.26;-13.29;-22.51;-53.84;-3;1
6.32;1.22;-13.17;-46.36;-18.28;-26.67;1
7.05;0.47;-11.72;-70.08;27.55;-53.93;1
6.36;0.16;-10.31;-95.64;34.15;-93.42;1
5.56;-1.48;-6.21;-116.15;7.02;-114.27;1
0.9;-4.85;0.16;-113;-59.88;-133.39;1
-4.53;-9.73;4.18;-74.69;-112.97;-135.6;1
-9.42;-13.88;-2.57;-35.5;-68.1;-151.62;1
-15.13;-16.16;-11.87;-73.31;-25.65;-168.84;1
-19.7;-19.55;-12.6;-131.5;71.74;-111.57;1
-19.7;-19.55;-7.12;-120.4;214.67;8.25;1
-14.02;-13.39;-8.22;-66.52;254.27;72.73;1
-6.36;-8.98;-8.15;-30.1;254.27;106.18;1
5.05;-15.91;-9.89;-65.77;131.16;108.62;1
17.17;-19.55;-7.73;-114.93;-100.01;63.51;1
10.42;-19.55;4.82;-0.24;-52.47;-13.68;1
1.16;-13.21;-7.64;92.65;18.4;-24.29;1
2.59;-8.72;-16.79;88.64;-1.54;-22.95;1
4.3;-5.58;-19.74;60.27;26.12;-21.43;1
7.75;-2.24;-21.11;8.14;41.99;-27.72;1
10.46;-1.65;-22.15;-46.48;67.8;-56.43;1
11.43;-4.38;-20.8;-86.61;91.07;-101.62;1
7.69;-8.91;-17.62;-108.58;99.48;-132.85;1
2.19;-11.5;-14.44;-113.76;95.77;-144.77;1
-2.81;-16.15;-11.73;-110.04;63.95;-143.99;1
-7.21;-19.55;-9.21;-94.37;41.45;-123.16;1
-10.51;-17.26;-7.39;-61.26;51.7;-92.57;1
-7.18;-10.24;-7.15;-28.44;48.18;-71.9;1
-3.6;-8.14;-9.72;-21.4;36.62;-61.79;1
-1.82;-7.31;-12;-27.25;31.25;-60.51;1
-1;-6.46;-12.61;-38.28;26.11;-62.93;1
-0.16;-6.21;-12.39;-50.34;10.06;-71.07;1
0.56;-6.98;-11.65;-57.57;-14.44;-79.53;1
0.63;-8.51;-11.02;-57.93;-22.43;-84.92;1
0.47;-9.61;-10.67;-58.41;-4.68;-85.73;1
0.28;-10.21;-10.63;-57.95;19.83;-84.16;1
0.18;-9.87;-10.35;-51.7;33.33;-82.04;1
0.25;-8.63;-9.95;-42.21;37.39;-79.04;1
-0.13;-8.73;-9.9;-36.68;40.84;-76.46;1
-1.09;-9.78;-9.54;-40.11;51.99;-73.53;1
-2.49;-10.7;-8.78;-45.72;70.64;-69.82;1
-4.88;-11.38;-7.83;-32.42;91.53;-67.04;1
-7.53;-11.42;-8.03;0.89;106.36;-59.27;1
-9.92;-10.82;-8.88;25.11;96.06;-49.4;1
-11.48;-10.15;-8.86;34.84;67.11;-34.76;1
-11.93;-9.95;-7.88;41.3;44.88;-16.18;1
-11.53;-9.74;-5.09;50.83;40.32;3.68;1
-10.16;-9.64;-2.83;71.57;42.14;23.78;1
-8.76;-9.98;-4.63;97.5;24.57;49.14;1
-7.6;-11.34;-7.42;110.59;-1.71;76.43;1
-8.2;-12.59;-9.62;110.3;-25.56;108.5;1
-8.62;-13.52;-12.01;97.32;-54.87;144.7;1
-7.67;-15.02;-15.45;76.3;-80.73;173.7;1
-5.64;-17.16;-15.95;53.11;-95.65;192.95;1
-0.53;-19.55;-14.61;28.62;-91.37;184.76;1
2.48;-19.55;-11.29;42.53;-70.11;156.05;1
3.64;-19.55;-10.41;101.63;-69.51;148.5;1
3.71;-17.53;-11.44;119.73;-93.08;136.9;1
2.11;-16.62;-12.46;101.71;-121.04;127.31;1
0.54;-18.69;-12.68;78.98;-107.91;137.47;1
1.39;-17.03;-11.66;72.56;-48.02;159.15;1
3.33;-15.35;-11.62;76.72;-35.45;151.37;1
4.22;-13.34;-11.33;76.92;-41.64;137.98;1
3.81;-12.04;-10.59;76.96;-42.76;131.48;1
4.87;-10.19;-10.99;71.61;-39.86;123.48;1
4.72;-8.66;-10.81;64.81;-38.46;113.71;1
4.04;-7.6;-10.79;58.95;-45.63;105.22;1
3.5;-6.81;-10.69;52.08;-57.88;95.79;1
3.12;-6.1;-10.83;45.34;-64.91;85.4;1
3.16;-5.37;-10.94;37.4;-67.83;74.72;1
3.75;-4.55;-11.22;29.65;-66.44;62.34;1
3.98;-3.79;-11.48;23.27;-62.01;47.47;1
4.03;-3.31;-11.68;17.11;-54.31;34.21;1
4.2;-2.73;-11.89;8.82;-46.49;19.78;1
4.1;-2.31;-11.62;-1.18;-41.84;6.54;1
3.94;-1.96;-10.86;-12.63;-37.57;-9.96;1
2.54;-1.85;-9.62;-19.69;-37.12;-28.38;1
0.74;-2.4;-8.34;-24.54;-41.42;-39.45;1
-1.07;-2.95;-6.49;-34.64;-58.89;-48.32;1
-2.92;-3.76;-4.96;-43.31;-77.86;-55.15;1
-5.22;-4.86;-4.6;-51.9;-92.88;-60.33;1
-8.36;-7.11;-5.19;-68.62;-85.8;-57.92;1
-10.14;-9.27;-6.7;-98.99;-44.63;-45.29;1
-10.83;-10.98;-7.59;-127.66;31.74;-30.2;1
-7.89;-11.18;-8.32;-129.57;90.85;-27.3;1
-3.23;-9.57;-10.33;-112.27;146.1;-33.13;1
1.49;-8.02;-10.87;-97.79;220.67;-37.52;1
3.9;-8.96;-9.44;-101.75;235.82;-42.51;1
6.75;-19.55;-8.6;-131.22;124.47;-58.24;1
2.19;-19.55;0.99;-73.82;71.31;-48.34;1
-9.66;-19.55;0.85;94.51;17.97;-24.14;1
-3.86;-11.05;-11.46;131.14;-34.58;8;1
2.52;-2.34;-17.54;81.83;0.03;28.55;1
6.51;2.19;-18.66;6.41;41.16;18.67;1
9.84;4.8;-18.09;-57.31;66.88;-9.06;1
11.68;2.66;-17.55;-89.92;95.35;-60.09;1
10.72;-3.09;-15.16;-96.92;108.87;-121.58;1
6.34;-10.5;-14.28;-92.18;121;-154.97;1
-0.53;-13.85;-12.69;-73.83;110.72;-162.63;1
-4.78;-17.14;-12.57;-58.73;77.3;-162.37;1
-8.86;-19.55;-12.51;-54.55;31.79;-138.29;1
-11.27;-18.66;-11.41;-54.8;42.29;-97.45;1
-10.07;-9.85;-8;-41.92;51.19;-64.16;1
-5.31;-7.91;-9.03;-32.47;27.54;-54.29;1
-2.91;-6.68;-10.52;-28.01;12.32;-55.69;1
-1.11;-5.62;-11.43;-31.7;3.43;-64.54;1
0.19;-5.1;-11.87;-40.4;-11.3;-74.46;1
1.78;-6.01;-12.58;-49.6;-22.27;-87.42;1
2.97;-7.96;-13.06;-59.81;-29.08;-102.11;1
3.34;-10.68;-12.98;-70.98;-27.02;-110.63;1
1.86;-12.38;-11.99;-79.57;-12.43;-109.63;1
0.8;-12.21;-9.96;-78.89;7.05;-98.63;1
0.81;-10.52;-8.24;-66.87;22.14;-91.1;1
0.82;-9.65;-7.5;-43.25;26.61;-91.04;1
-0.25;-9.28;-8.69;-25.43;38.96;-90.02;1
-1.51;-10.09;-10.55;-19.78;45.38;-87.42;1
-2.46;-11.22;-11.81;-23.63;50.33;-86.46;1
-3.36;-10.66;-11.16;-30.83;58.86;-86.09;1
-4.86;-9.83;-8.88;-27.49;57.25;-86.44;1
-7.85;-9.32;-7.99;-6.21;52.09;-80.17;1
-10.28;-9.28;-8.09;11.57;42.35;-64.5;1
-12.2;-9.38;-7.48;23.62;36.72;-38.79;1
-11.35;-8.59;-6.08;33.5;33.05;-13.85;1
-11.74;-8.46;-4.66;47.03;23.7;14.21;1
-11.32;-9.12;-5.15;70.24;8.62;42.5;1
-11.18;-10.73;-7.73;94.01;-20.33;70.52;1
-10.58;-12.64;-9.69;108.13;-49.67;102.64;1
-9.67;-13.48;-11.59;105.85;-75.26;138.76;1
-7.62;-14.08;-13.06;90.19;-97.29;172.14;1
-4.62;-16.39;-13.02;64.54;-109.15;199.38;1
-0.97;-19.55;-12.31;35;-105.03;216.47;1
4.11;-19.55;-9.7;29.08;-109.01;195.12;1
5.82;-19.55;-9.33;104.6;-86.32;173.67;1
6.54;-19.55;-11.74;155.69;-57.12;162.03;1
6.04;-19.55;-13.72;143.65;-55.78;159.93;1
3.2;-19.17;-13.99;120.59;-59.09;156.26;1
1.5;-19.55;-13.97;104.42;-50.95;165.37;1
3.07;-18.7;-13.41;100.43;-37.99;158.3;1
5.81;-15.91;-12.04;102.47;-1.24;152.64;1
6.05;-14.07;-11.22;92.34;10.09;144;1
5.14;-12.62;-11.26;85.28;9.82;129.48;1
3.89;-10.1;-10.93;75.86;-8.97;116.66;1
4.22;-8.39;-11.22;66.29;-16.96;110.36;1
3.82;-6.96;-10.9;55.05;-48.88;95.8;1
3.11;-5.97;-10.76;45.97;-83.14;82.6;1
3.13;-4.92;-10.65;41.69;-100.19;71.86;1
3.2;-3.73;-10.96;38.76;-105.56;59.36;1
3.91;-2.6;-11.79;33.48;-96.39;46.86;1
4.77;-1.68;-12.86;21.73;-73.85;31.37;1
5.26;-0.75;-14.18;1.97;-47.17;18.56;1
5.96;0.21;-14;-18.1;-23;5.16;1
6.62;0.84;-13.16;-37.18;4.68;-7.45;1
5.53;0.17;-11.55;-51.7;28.87;-28.54;1
4.27;-0.22;-10;-55.1;42.77;-56.21;1
0.75;-1.22;-7.35;-62.65;12.61;-76.05;1
-1.82;-2.43;-5.09;-76.57;-41.31;-72.75;1
-3.85;-4.43;-3.5;-86.63;-104.7;-85.21;1
-6.99;-7.46;-5.35;-84.3;-99.56;-100.69;1
-10.76;-9.93;-10.81;-99.74;-16.91;-103.95;1
-14.77;-13.15;-10.94;-129.99;51.81;-91.88;1
-12.76;-16.81;-6.65;-122.44;105.53;-59.86;1
-9.01;-16.56;-5.72;-70.29;152.7;-37.93;1
-6.77;-11.34;-7.67;-21.15;164.96;-10.99;1
-1.2;-9.17;-9.83;-12.46;117.81;22.99;1
10.28;-19.55;-14.15;-72.57;34.56;38.82;1
17.07;-19.55;-13.52;-142.07;-83.39;-23.04;1
4.81;-19.55;2.29;-91.11;-27.36;-72.45;1
-7.03;-19.55;-2.76;34.77;74.08;-44.69;1
-4.77;-11.31;-11.38;69.74;70.24;-4.29;1
4.38;-4.29;-15.08;56.44;62.93;18.18;1
8.82;-0.77;-16.78;12.75;58.44;4.76;1
11.46;2.44;-17.47;-17.32;63.08;-29.9;1
11.96;1.86;-19.22;-34.51;110.72;-78.71;1
8.29;-1.41;-19.4;-42.46;140.24;-125.41;1
1.73;-5.13;-18.46;-55.47;135.73;-133.32;1
-1.71;-8.62;-17.08;-77.79;95.68;-135.7;1
-4.88;-14.79;-15;-111.24;26.58;-137.83;1
-8.16;-19.55;-12.45;-135.4;-25.55;-122.72;1
-12.17;-19.15;-5.89;-116.47;13.55;-87.14;1
-7.43;-9.83;-2.24;-48.47;22.77;-67.21;1
-4.63;-8.44;-5.31;-5.95;-3.91;-58.81;1
-2.62;-7.03;-9.14;4.71;-13.57;-50.51;1
-0.5;-5.8;-11.78;-10.21;-15.73;-46.89;1
2.06;-6.06;-13.69;-34.14;-11.49;-47.85;1
3.42;-6.93;-13.86;-53.31;2.74;-60.89;1
2.52;-9.14;-13.05;-62.67;15.51;-70.22;1
0.72;-10.93;-12.16;-61.99;26.32;-70.04;1
0.06;-11.11;-11.41;-58.73;34.86;-66.43;1
0.28;-10.52;-10.22;-53.4;30.96;-63.79;1
1.01;-9.96;-9.27;-38.55;19.39;-66.93;1
0.37;-9.91;-9.81;-25.91;23.06;-74.33;1
-0.77;-9.83;-10.68;-26.76;36.93;-77.87;1
-1.74;-9.37;-10.86;-34.13;45.06;-80.61;1
-2.69;-8.99;-10.27;-39.17;42.26;-85.08;1
-4.33;-8.99;-9.81;-32.38;40.77;-87.45;1
-5.73;-9.19;-9.46;-17.82;36.78;-82.91;1
-6.29;-9.26;-9.24;-6.57;27.04;-71.57;1
-6.4;-9.52;-8.73;-1.89;18.07;-58.57;1
-6.86;-9.96;-7.46;1.04;12.48;-43.73;1
-7.87;-10.25;-5.92;13.95;14.32;-24.26;1
-9.17;-9.93;-5.82;36.44;22.73;0.08;1
-10.73;-10.24;-7.02;59.29;23.89;26.48;1
-12.52;-11.69;-7.81;84.48;6.34;56.54;1
-12.21;-13.45;-8.52;108.32;-13.72;84.86;1
-10.77;-12.99;-9.96;114.64;-35.84;115.15;1
-7.99;-11.98;-11.94;99.23;-59.07;147.1;1
-5.28;-13.42;-12.72;79.07;-78.68;175.65;1
-1.99;-16.29;-11.43;60.03;-84.13;201.35;1
2.76;-19.55;-9.86;53.87;-74.46;209.47;1
6.02;-19.55;-10.41;71.56;-45.78;179.58;1
6.82;-19.55;-12.43;108.05;13.8;151.43;1
5.8;-19.55;-12.83;146.07;14.62;135.93;1
4.12;-17.24;-13.87;134.83;-42.91;141.7;1
-0.31;-17.08;-14.68;103.39;-62.84;142.71;1
-0.88;-18.93;-13.72;76.66;-46.97;159.12;1
-0.47;-18.92;-11.09;76.97;-25.95;183.12;1
3.16;-17.65;-11.46;86.29;-9.91;171.57;1
4.39;-15.79;-10.7;83.72;-16.89;156.86;1
4.6;-13.93;-9.85;79.53;-31.12;144.69;1
4.28;-12.56;-8.96;86.3;-53.84;138.94;1
3.71;-10.87;-9.36;93.77;-79.49;126.08;1
4.13;-8.57;-10.4;95.53;-92.84;114.25;1
3.68;-6.81;-11.05;93.1;-100.05;97.29;1
3.43;-5.54;-11.69;87.84;-104.96;82.57;1
3.69;-4.11;-12.01;78.06;-97.13;67.05;1
4.03;-3.26;-12.25;69.04;-72.81;53.81;1
4.49;-2.29;-12.78;54.79;-52.44;37.36;1
4.96;-1.64;-13.23;36.61;-38.74;21.73;1
5.34;-0.66;-12.74;18.82;-25.47;1.79;1
2.9;-0.57;-11.95;3.92;-10.81;-8.33;1
3.08;-0.86;-10.36;-4.86;11.29;-33.48;1
2.18;-0.93;-10.3;-9.17;43.32;-55.92;1
0.57;-1.35;-11.19;-18.87;72.61;-71.23;1
-1.78;-1.79;-11.21;-41.32;76.41;-77.88;1
-4.71;-2.67;-9.4;-66.76;50.41;-74.11;1
-7.47;-4.76;-6.77;-89.8;-0.19;-66.11;1
-9.78;-7.33;-4.05;-98.73;-59.78;-51.59;1
-9.99;-9.88;-2.39;-92.24;-114.38;-37.5;1
-8.35;-11.05;-2.63;-80.15;-118.26;-24.69;1
-6.34;-10.7;-3.43;-77.58;-68.46;-8.08;1
-1.98;-8.25;-5.46;-74.6;31.58;-9.22;1
-0.65;-7.82;-0.87;-61.06;152.19;-5.09;1
1.09;-7.57;-0.54;-47.48;196.51;-2.5;1
1.59;-9.67;-7.73;-56.23;177.73;-2.52;1
1.32;-16.65;-17.3;-64.52;159.54;-3.83;1
0.19;-19.55;-18.67;-46.08;94.77;2.23;1
-3.38;-19.55;-13.38;-22.34;27.08;17.07;1
-1.31;-11.93;-10.79;23.48;25.43;31.81;1
2.42;-4.45;-12.56;34.47;-11.49;31.53;1
5.59;-0.12;-13.13;4.05;-6.98;7.15;1
5.31;-1.59;-15.63;-20.79;11.9;-41.05;1
2.86;-5.85;-16.81;-40.68;6.84;-82.93;1
1.35;-10.41;-15.75;-66.25;-8.43;-103.93;1
-0.61;-14.31;-12.82;-82.62;-9.75;-109.32;1
-1.36;-17.46;-9.47;-64.36;6.84;-99.18;1
1.2;-18.3;-9.56;-38.95;12.08;-80.69;1
2.67;-14.98;-10.81;-37.44;21;-73.84;1
2.31;-12.33;-11.15;-42.12;42.49;-72.18;1
1.19;-11.6;-11.83;-45.6;60.45;-75.29;1
0.65;-10.91;-13.1;-48.99;76.16;-75.29;1
0.24;-10.12;-13.28;-56.18;74.48;-82.24;1
0.01;-10.08;-13.5;-61.31;59.67;-94.23;1
-0.13;-10.97;-13.6;-66.76;38.74;-114.14;1
-0.57;-11.78;-13.19;-68.32;13.09;-130.95;1
-1.21;-12.59;-12.07;-65.83;-8.58;-142.04;1
-1.89;-13.54;-11.33;-58.39;-14.04;-147.43;1
-2.16;-14.15;-11.32;-57.46;-5.85;-145.11;1
-2.16;-13.68;-11.54;-66.4;8.15;-134.42;1
-1.95;-13.06;-11.14;-75.01;17.78;-123.38;1
-1.89;-12.1;-9.81;-75.28;21.51;-113.19;1
-3.16;-12.37;-8.74;-69.8;30.83;-110.37;1
-4.93;-13.06;-8.04;-62.73;36.3;-111.95;1
-5.73;-12.11;-7.42;-58.76;54.33;-108.24;1
-6.55;-10.81;-6.7;-54.66;73.84;-100.59;1
-6.6;-10.71;-5.78;-32.44;77.12;-91.04;1
-8.9;-10.66;-5.97;10.55;81.88;-80.18;1
-12.03;-8.64;-6.73;42.87;96.2;-60.59;1
-14.96;-5.51;-4.3;48.54;79.79;-37.04;1
-17.11;-3.49;-1.43;54.96;45.69;-2.13;1
-15.57;-2.65;-2.89;76.37;9.93;36.44;1
-11.98;-3.11;-7.76;92.86;-25.17;65.92;1
-9.13;-4.63;-10.37;101.5;-53.66;95.94;1
-7.82;-7.32;-12.28;96.69;-80.6;130.48;1
-7.55;-12.67;-14.77;90.33;-121.55;172.44;1
-7.36;-17.93;-15.66;78.27;-150.09;207.31;1
-5.21;-19.55;-15.6;34.56;-194.02;196.97;1
0.6;-19.55;-14.12;-0.89;-133.9;157.81;1
-0.4;-19.34;-4.11;67.04;-83.52;149.15;1
2.9;-18.99;-7.98;145.04;-143.91;172.19;1
6.27;-19.55;-13.36;146.51;-148.27;176.02;1
5.42;-19.55;-15.56;132.51;-127.44;170.2;1
7.63;-19.55;-16.33;118.19;-57.59;169.56;1
9.08;-17.44;-12.85;117.69;30.57;140.11;1
8.16;-14.03;-10.25;126.71;56.64;126.85;1
5.85;-11.94;-9.33;128.71;55.25;117.25;1
4.49;-10.71;-10.53;128.99;74.9;111.91;1
3.19;-9.03;-10.89;115.63;62.21;106.42;1
1.82;-7.71;-10.21;96.31;26.9;106.56;1
0.97;-6.96;-9.32;82.75;-29.46;109.12;1
1.63;-6.13;-9.55;76.35;-67.35;112.25;1
2.25;-5.62;-10.18;71.99;-87.84;111.23;1
2.93;-5.15;-11.33;62.96;-91.22;104.11;1
3.62;-4.53;-12.25;49.49;-85.35;90.83;1
4.74;-3.72;-12.88;32.76;-75.71;69.04;1
5.19;-2.36;-12.74;16.74;-69.34;41.03;1
5.2;-1.41;-12.15;0.6;-62.23;15.09;1
4.56;-0.59;-11.8;-19.26;-47.12;-15.17;1
3.56;0.16;-11.64;-39.89;-19.33;-40.19;1
1.51;-0.44;-10;-60.45;-6.88;-62.23;1
-0.86;-1.47;-8.43;-76.5;-6;-76.12;1
-3.17;-2.81;-5.47;-86.64;-28.83;-89.09;1
-5.41;-5.75;-2.88;-81.87;-51.15;-91.58;1
-7.93;-8.82;-3.48;-72.92;-35.04;-80.48;1
-11.3;-11.19;-6.92;-75.89;12.65;-59.85;1
-10.95;-12.14;-12.26;-98.89;81.65;-42.6;1
-8.09;-11.13;-12.73;-126.22;191.94;11.67;1
-1.49;-7.43;-6.66;-147.43;254.27;40.29;1
6.85;-7.64;2.01;-129.34;167.09;25.54;1
7.14;-19.29;-0.17;-47.56;120.8;-29.7;1
-2.78;-19.55;-10.75;20.06;88.02;-33.31;1
-12;-19.55;-12.72;20.66;-73.38;-16.75;1
-8.72;-13.62;-9.09;26.23;-14.05;60.79;1
5.35;-5.58;-9.72;30.65;7.14;95.35;1
13.63;-0.54;-10.7;1.93;-18.72;47.42;1
14.71;0.87;-13.31;13.15;0.03;-17.86;1
10.04;-0.18;-16.12;17.86;48.22;-71.62;1
6.34;-3.69;-17.76;-2.82;76.74;-106.63;1
3.16;-7.37;-18.15;-36.27;91.25;-134.83;1
-1.22;-12.12;-16.82;-66.45;80.91;-149.6;1
-5.42;-16.34;-14.45;-84.58;51.71;-146.23;1
-9.56;-19.55;-10.3;-90.9;32.59;-112.88;1
-9.78;-19.55;-7.06;-72.07;37.09;-58.31;1
-4.23;-12.22;-7.65;-32.52;14.06;-42.04;1
-1.8;-9.48;-11.08;-18.82;-3.1;-40.27;1
0.24;-7.58;-13.33;-27.33;11.93;-41.92;1
1.77;-6.81;-14.6;-45.74;32.4;-52.12;1
2.97;-6.78;-14.43;-65.14;39.24;-73.73;1
3.41;-8.27;-12.84;-80.78;31.93;-102.59;1
1.77;-10.33;-11.58;-83.05;15.42;-126.31;1
0.73;-11.95;-10.48;-78.21;10.61;-139.53;1
-0.23;-13.02;-10.55;-66.76;10.72;-137.7;1
-0.46;-12.91;-10.92;-60.64;8.12;-124.98;1
0.61;-11.29;-12.07;-62.26;9.54;-119.61;1
0.01;-11.92;-13.11;-65.2;21.06;-119.97;1
-1.36;-11.97;-13.49;-72.19;39.55;-120.27;1
-1.89;-11.46;-13.36;-87.86;59.4;-123.2;1
-2.71;-11.22;-11.27;-105.85;56.73;-122.38;1
-2.4;-11.84;-5.78;-108.39;41.01;-122.82;1
-3.88;-14.15;-1.92;-55.88;42.92;-129.43;1
-6.85;-13.5;-4.48;-12.59;78.29;-119.24;1
-9.83;-11.86;-7.87;8.77;91.35;-100.72;1
-12.39;-10.24;-8.01;16.83;89.87;-73.08;1
-14.39;-8.36;-6.62;29.5;79.37;-39.12;1
-14.02;-6.45;-5.62;50.53;56.38;-14.78;1
-15.61;-5.98;-6.23;70.65;31.16;14.82;1
-14.6;-6.7;-6.51;83.43;17.12;50.7;1
-12.46;-9.32;-6.51;95.92;-5.38;87.33;1
-9.93;-12.01;-8.43;104.62;-37.17;116.74;1
-7.77;-13.18;-10.31;104.78;-68.31;139.25;1
-5.86;-12.77;-11.88;97.45;-96.36;159.18;1
-3.66;-13.22;-12.79;82.82;-110.34;178.15;1
-1.14;-16.36;-13.34;58.13;-106.04;197.05;1
1.94;-19.55;-13.74;38.95;-115.46;194.03;1
5.05;-19.55;-13.57;53.51;-130.47;163.98;1
4.58;-19.55;-11.75;110.26;-110.01;148.31;1
4.49;-17.12;-11.54;135.5;-100.18;151.01;1
2.68;-16.14;-11.46;119.37;-74.77;164.43;1
1.52;-17.65;-11.28;105.39;-52.1;179;1
6.48;-19.04;-11.87;104.34;1.06;169.78;1
7.62;-16.07;-11.84;108.36;32.22;140.2;1
5.73;-11.77;-10.76;97.81;31.54;126.76;1
3.72;-9.92;-10.69;92.51;39.04;127.24;1
2.7;-9.16;-10.14;83.21;24.82;127.79;1
2.31;-7.99;-9.97;72.49;-0.78;120.94;1
1.38;-7.17;-9.9;62.27;-31.51;114.59;1
1.37;-6.73;-10.19;53.83;-61.97;109.86;1
1.93;-6.11;-10.79;48.74;-89.3;103.16;1
2.61;-5.4;-11.35;45.44;-106.95;94.48;1
3.33;-4.89;-12.34;37.53;-111.98;79.76;1
4.4;-4.24;-13.81;22.84;-100.94;60.35;1
5.39;-3.2;-14.56;3.1;-79.72;35.18;1
5.79;-2.14;-14;-19.68;-56.23;7.67;1
5.76;-1.21;-13.11;-43;-30.74;-20.66;1
5.95;-0.63;-12.57;-62.76;1.63;-49.96;1
5.69;-0.2;-10.88;-82.18;23.22;-75.34;1
3.66;-1.72;-7.18;-95.76;13.81;-93.16;1
1.27;-3.76;-3.79;-89.54;-0.04;-105.56;1
-3.01;-5.07;-1.4;-79.19;-36.17;-117.25;1
-7.15;-8.47;-2.42;-65.43;-54.17;-116.85;1
-11.38;-12.4;-5.61;-66.86;-42.84;-111.14;1
-17.09;-15.18;-9.6;-103.05;-17.66;-94.41;1
-18.92;-19.55;-8.91;-146.32;67.25;-44.09;1
-12.62;-19.55;-6.86;-123.26;222.65;25.16;1
-6.7;-15.51;-9.11;-93.29;254.27;50.22;1
2.12;-19.55;-11.15;-91.82;164.13;73.01;1
15.45;-19.55;-5.73;-78.5;18.12;54.03;1
15.92;-19.55;1.33;27.27;-58.5;-21.9;1
8.95;-11.66;-6.16;83.63;-20.2;-38.45;1
6.61;-7.25;-15.54;65.46;42.7;-52.74;1
4.97;-3.19;-18.49;32.29;69.62;-58.38;1
5.74;-0.22;-20.26;-5.86;86.85;-75.04;1
7.18;-1.37;-20.5;-37.46;87.63;-101.45;1
7.92;-5.19;-19.92;-64.45;79.23;-136.62;1
5.01;-10.12;-18.55;-92.73;65.48;-170.98;1
-0.47;-13.62;-15.83;-113.02;41.6;-173.91;1
-5.69;-18.67;-12.93;-131.15;19.21;-146.62;1
-11.3;-19.55;-8.1;-124.75;44.85;-99.89;1
-10.49;-12.69;-3.05;-70.67;50.54;-70.81;1
-5.23;-9.17;-5.46;-23.55;16.98;-65.61;1
-3.5;-7.3;-9.06;-5.8;6.47;-62.27;1
-1.48;-5.09;-11.75;-10.53;16.8;-57.81;1
0.22;-4.27;-12.35;-22.79;17.93;-61.82;1
1.93;-4.4;-13.41;-36.4;20.17;-67.33;1
1.68;-6.08;-13.99;-50.06;26.37;-72.92;1
1.09;-8.19;-14.25;-63.42;44.97;-71.68;1
0.62;-10.52;-13.77;-73.29;55.98;-64.33;1
0.97;-11.14;-11.87;-79.17;50.42;-62.41;1
1.93;-10.75;-9.33;-68.89;40.48;-69.75;1
1.61;-10.89;-8.98;-45.07;48.91;-80.57;1
0.32;-12.06;-10.86;-24.86;51.95;-87.14;1
-0.78;-12.4;-12.75;-21.76;48.52;-91.56;1
-1.47;-11.08;-12.62;-32.98;42.51;-92.97;1
-3.01;-11.15;-11.12;-46.6;38.78;-98.53;1
-7.35;-12.25;-8.61;-36.62;54.17;-96.58;1
-9.75;-11.78;-9.08;-2.26;57.21;-80.48;1
-11.01;-10.63;-11.38;15;28;-64.66;1
-12.14;-9.71;-10.78;12.79;-1.97;-45.75;1
-12.62;-9.71;-7.47;10.47;-13.04;-18.63;1
-11.94;-11.02;-4.29;31.34;-7.91;8.29;1
-12.53;-11.58;-4.6;64.93;1.11;38.19;1
-11.17;-11.32;-6.69;89.25;-3.08;67.92;1
-10.07;-11.93;-7.67;103.93;-24.5;96;1
-9.39;-13.26;-8.69;114.64;-55.58;122.15;1
-7.86;-13.06;-11.39;116.52;-88.4;150.73;1
-5.8;-12.89;-11.89;106.11;-121.2;180.29;1
-2.73;-14.9;-12.62;85.09;-140.65;207.88;1
0.28;-19.55;-12.94;63.87;-152.13;216.55;1
5.15;-19.55;-12.91;50.97;-141.2;184.57;1
6.73;-19.55;-10.5;97.48;-92.72;156.73;1
5.99;-19.55;-11.86;158.84;-95.26;157.28;1
4.75;-17.39;-13.62;155.31;-98.41;146.21;1
4.75;-19.55;-15.46;128.95;-55.85;139.44;1
3.46;-18.78;-15.64;107.66;-21.32;149.1;1
2.24;-15.49;-14.27;97.83;12.64;162.25;1
3.48;-13.41;-12.52;95.12;30.07;175.53;1
5.71;-12.34;-11.78;93.52;31.54;164.37;1
4.84;-10.74;-11.48;88.82;4.67;148.8;1
3.36;-9.54;-11.19;81.13;-19.39;140.63;1
3.04;-8.23;-10.91;70.96;-44.12;130.52;1
2.79;-6.67;-10.56;60.24;-68.71;117.29;1
3.04;-5.66;-10.61;50.98;-89.43;102.44;1
3.93;-4.39;-11.25;44.89;-99.79;85.87;1
4.49;-2.97;-12.33;37.9;-98.79;69.79;1
5;-2.08;-13.2;24.43;-93.2;50.64;1
5.52;-1.32;-13.75;6.47;-81.19;31.83;1
6.64;-0.11;-13.52;-13.99;-64.3;5.8;1
6.53;0.2;-13.02;-34.04;-39.56;-17.3;1
4.66;0.38;-11.73;-51.84;-22.7;-38.41;1
3.41;-0.58;-8.67;-59.57;-22.24;-63.42;1
1.12;-2.82;-5.07;-58.27;-46.81;-74.29;1
-0.12;-3.37;-2.59;-46.69;-78.57;-81.54;1
-2.57;-5.81;-1.14;-33.05;-99.99;-88.63;1
-7.7;-8.88;-0.88;-18.1;-91.61;-83.76;1
-11.5;-11.65;-3.9;-12.87;-56.52;-63.7;1
-14.26;-13.25;-9.63;-57.18;-11.43;-32.59;1
-14.06;-13.97;-9.62;-109.63;55.24;9.27;1
-6.62;-13.27;-6.4;-105.08;122.99;25.3;1
