acc_x;acc_y;acc_z;gyro_x;gyro_y;gyro_z;label
-4.68;-8.16;-9.8;-1.5;14.92;-42.22;1
-4.62;-7.99;-9.55;-3.37;13.59;-44.02;1
-4.62;-8.03;-9.4;-3.71;8.09;-44.95;1
-4.66;-8.37;-9.48;-3.57;5.19;-45.56;1
-4.68;-8.66;-9.66;-2.4;3.48;-46.6;1
-4.56;-8.53;-9.49;-2.14;-0.8;-47.43;1
-4.36;-8.26;-9.01;-1.84;-7.12;-47.53;1
-4.22;-8.08;-9.06;-0.61;-12.12;-46.89;1
-4.04;-8.54;-9.43;-0.7;-9.97;-46.29;1
-3.91;-8.88;-9.59;-0.94;-7.07;-46.55;1
-3.57;-8.97;-9.25;-0.58;-8.07;-47.5;1
-3.51;-8.85;-9.17;0.29;-9.59;-49.88;1
-3.43;-8.71;-9.22;0.37;-10.26;-51.5;1
-3.59;-8.77;-9.1;-0.42;-7.36;-52.53;1
-3.49;-9.11;-8.99;1.65;-5.41;-51.22;1
-3.11;-9.05;-8.88;3.07;-5.19;-49.79;1
-2.87;-9.01;-8.68;5.69;-5.28;-49.19;1
-2.66;-8.98;-8.96;8.54;-3.61;-48.66;1
-2.84;-8.99;-9.04;8.93;1.67;-47.86;1
-2.78;-9.26;-9.1;10.24;2.45;-46.11;1
-2.75;-9.43;-8.88;12.27;3.88;-44.85;1
-2.51;-9.33;-8.99;13.69;1.57;-45.29;1
-2.34;-9.15;-9.2;14.58;-1.2;-46.83;1
-2.22;-8.85;-9.39;13.82;0.44;-48.33;1
-2.27;-8.68;-9.41;13.58;-1.46;-48.58;1
-2.5;-8.66;-9.4;12.58;-3.84;-46.9;1
-2.72;-8.88;-9.39;10.78;-4.33;-43.46;1
-2.68;-9.3;-9.47;9.3;-1.79;-41.08;1
-2.41;-9.39;-9.26;8.33;-2.58;-40.69;1
-2.07;-9.2;-9.18;8.72;-3.03;-43.33;1
-2.21;-9.06;-9.1;10.16;-5.37;-45.3;1
-2.47;-8.86;-9.38;9.8;-12.95;-44.73;1
-2.56;-8.9;-9.42;6.9;-19.29;-41.66;1
-2.58;-8.99;-9.2;5.45;-21.15;-39.09;1
-2.5;-9.04;-9.07;5.03;-23.91;-36.48;1
-2.32;-8.95;-9.05;4.4;-27.52;-34.36;1
-2.18;-8.73;-9;4.37;-33.12;-33.63;1
-1.96;-8.89;-9.08;4.12;-39.42;-32.59;1
-1.93;-9.15;-9.08;3.55;-44.43;-30.93;1
-1.64;-9.32;-8.99;4.21;-47.2;-28.86;1
-1.5;-9.21;-9.12;2.8;-48.91;-28.14;1
-1.38;-9.27;-9.2;0.87;-49.95;-27.5;1
-1.18;-9.48;-9.18;-0.37;-47.75;-26.17;1
-0.94;-9.48;-8.93;-0.48;-45.81;-24.28;1
-0.74;-9.38;-8.66;0.65;-44.49;-22.32;1
-0.53;-9.44;-8.67;1.4;-42.2;-21.03;1
-0.42;-9.6;-8.92;2.24;-39.07;-20.23;1
-0.13;-9.6;-8.94;0.44;-34.94;-20.47;1
-0.09;-9.7;-8.85;-0.18;-32.07;-21.5;1
-0.39;-9.74;-8.69;-0.05;-27.77;-21.55;1
-0.63;-9.44;-8.49;-0.78;-24.26;-19.09;1
-0.62;-9.41;-8.45;-0.34;-23;-16.26;1
-0.66;-9.48;-8.49;1.34;-21.45;-14.29;1
-0.44;-9.41;-8.66;2.41;-21.2;-13.56;1
-0.14;-9.41;-8.83;3.28;-19.77;-13.82;1
-0.11;-9.64;-8.93;5.01;-17.46;-13.69;1
-0.18;-9.91;-9.01;4.66;-14.61;-12.99;1
-0.22;-10.09;-8.94;4.75;-10.9;-12.08;1
-0.2;-9.9;-9.04;6.82;-6.66;-12.24;1
-0.34;-9.39;-9.05;8.05;-2.02;-13.08;1
-0.61;-8.97;-9.07;6.14;0.77;-11.4;1
-0.9;-9.06;-8.81;3.54;1.99;-8.88;1
-0.9;-9.25;-8.61;2.19;-1.22;-6.5;1
-0.91;-9.49;-8.71;2.3;-6.31;-5.99;1
-0.95;-9.51;-8.83;1.66;-10.57;-6.43;1
-1.02;-9.38;-8.96;0.26;-14.23;-6.61;1
-0.83;-9.27;-8.78;-0.89;-17.28;-6.59;1
-0.63;-9.4;-8.46;-1.19;-20.26;-5.42;1
-0.28;-9.79;-8;-1.14;-20.13;-3.71;1
0.01;-9.89;-8.23;1.71;-18.39;-2.87;1
0.14;-9.79;-8.43;4.11;-17.1;-4.19;1
0.11;-9.44;-8.7;2.99;-16.12;-5.52;1
0.11;-9.3;-8.7;-0.35;-13.72;-6.17;1
0.14;-9.46;-8.39;-3.04;-11.64;-4.82;1
0.17;-9.64;-8.15;-3.27;-9.47;-3.33;1
0.31;-9.68;-8.11;-1.92;-5.26;-1.66;1
0.27;-9.55;-8.32;-1.95;-1.71;-0.45;1
0.19;-9.4;-8.21;-3.18;0.53;0.21;1
0.03;-9.45;-8.15;-5.66;1.7;1.19;1
0.01;-9.77;-7.9;-6.57;2.33;2.05;1
0.24;-9.95;-7.52;-5.37;3.85;1.66;1
0.4;-10.07;-7.36;-2.5;6.42;0.41;1
0.48;-10.1;-7.28;0.23;9.87;-0.47;1
0.51;-9.96;-7.4;2.99;12.05;-1.3;1
0.56;-9.76;-7.69;4.37;13.91;-2.73;1
0.42;-9.6;-7.94;4.35;13.48;-3.92;1
0.22;-9.59;-8.14;4.3;12.83;-4.8;1
-0.1;-9.47;-8.22;3.03;14.1;-5.56;1
-0.33;-9.37;-8.26;1.56;11.79;-5.65;1
-0.41;-9.45;-8.27;0.51;7.73;-5.21;1
-0.39;-9.64;-8.34;-0.58;5.27;-4.69;1
-0.28;-9.73;-8.55;-0.13;4.22;-5.64;1
-0.21;-9.58;-8.46;0.23;2.53;-6.17;1
-0.34;-9.53;-8.31;0.69;0.38;-5.93;1
-0.48;-9.6;-8.23;0.47;0.59;-4.72;1
-0.61;-9.83;-8.27;0.07;1.91;-3.73;1
-0.59;-9.87;-8.32;0.81;1.06;-3.37;1
-0.53;-9.77;-8.38;1.51;-0.5;-3.35;1
-0.48;-9.46;-8.63;1.14;-1.9;-3.42;1
-0.41;-9.32;-8.66;-1.31;-2.41;-2.34;1
-0.27;-9.3;-8.69;-2.26;-3.78;-1.94;1
-0.05;-9.52;-8.67;-2.2;-2.59;-1.41;1
-0.17;-9.6;-8.67;-1.97;-1.26;-1.04;1
-0.17;-9.67;-8.6;-0.72;-2.3;-0.48;1
-0.12;-9.61;-8.52;0.12;-4.19;0.02;1
-0.14;-9.61;-8.6;-0.31;-4.26;0.02;1
-0.25;-9.69;-8.52;-0.76;-2.3;-0.23;1
-0.19;-9.76;-8.55;-0.33;-1.32;-1.13;1
-0.11;-9.72;-8.61;0.27;-2.14;-1.98;1
-0.1;-9.64;-8.73;0.4;-3.98;-2.51;1
-0.03;-9.62;-8.63;0.54;-4.98;-2.25;1
-0.13;-9.66;-8.63;0.28;-3.59;-2.15;1
-0.08;-9.63;-8.69;0.28;-0.92;-2.72;1
-0.1;-9.6;-8.62;0.38;0.46;-2.7;1
-0.21;-9.63;-8.53;0.3;2.45;-3.18;1
-0.19;-9.55;-8.5;0.35;4.14;-2.92;1
-0.05;-9.57;-8.53;0.26;3.76;-3.09;1
-0.05;-9.64;-8.4;0.73;3.77;-3.44;1
-0.17;-9.63;-8.42;0.45;4.19;-5;1
-0.21;-9.73;-8.39;0.47;3.63;-5.04;1
-0.18;-9.72;-8.39;1.16;1.89;-5.33;1
-0.04;-9.59;-8.26;0.91;0.65;-5.66;1
0.01;-9.62;-8.25;1.6;0.61;-5.57;1
0.18;-9.67;-8.33;2.5;2.67;-5.39;1
0.23;-9.57;-8.55;2.34;5.2;-5.56;1
0.17;-9.54;-8.49;1.89;8.39;-5.57;1
0.05;-9.56;-8.49;1.73;10.12;-5.66;1
0.02;-9.59;-8.51;1.8;10.93;-5.17;1
-0.07;-9.58;-8.59;1.83;11.2;-5.55;1
-0.11;-9.64;-8.54;1.87;10.68;-5.24;1
-0.17;-9.65;-8.5;1.59;11.28;-5.24;1
-0.19;-9.71;-8.51;1.6;10.06;-5.02;1
-0.11;-9.61;-8.54;1.69;9.68;-5.3;1
-0.2;-9.59;-8.52;1.97;9.72;-5.69;1
-0.2;-9.52;-8.48;2.26;7.89;-5.57;1
-0.24;-9.55;-8.56;1.77;5.79;-5.59;1
-0.28;-9.58;-8.51;2.07;5.87;-5.39;1
-0.28;-9.61;-8.7;1.61;5.87;-5.27;1
-0.26;-9.59;-8.66;1.51;4.74;-5.51;1
-0.2;-9.56;-8.52;1.93;2.93;-5.47;1
-0.15;-9.55;-8.55;1.98;1.93;-5.76;1
-0.17;-9.52;-8.64;1.58;1.25;-5.75;1
-0.18;-9.59;-8.52;0.91;1.13;-5.09;1
-0.02;-9.64;-8.49;1.43;-0.62;-5.3;1
-0.11;-9.71;-8.61;2.74;-0.66;-5.24;1
-0.07;-9.57;-8.55;2.23;0.22;-5.16;1
-0.03;-9.5;-8.49;1.31;1.03;-5.27;1
-0.13;-9.53;-8.5;1.2;-0.04;-5.04;1
-0.14;-9.61;-8.46;1.59;-2.25;-4.62;1
-0.09;-9.72;-8.53;1.39;-2.01;-4.03;1
0.08;-9.63;-8.47;1.03;-0.58;-4.31;1
0.16;-9.64;-8.44;2.18;-0.18;-5.08;1
0.09;-9.54;-8.48;2.54;-1.25;-5.13;1
0.06;-9.5;-8.49;1.69;-2.55;-5.26;1
0.05;-9.59;-8.45;0.58;-2.75;-5.56;1
0.03;-9.66;-8.48;0.69;-2.29;-5.46;1
0.17;-9.58;-8.4;1.39;-2.23;-5.14;1
0.31;-9.55;-8.26;1.17;-1.88;-5.18;1
0.27;-9.55;-8.24;0.98;-1.42;-5.45;1
0.21;-9.6;-8.27;0.65;-0.49;-5.39;1
0.14;-9.6;-8.29;0.77;-0.42;-5.1;1
0.12;-9.65;-8.34;0.82;-1.01;-4.95;1
0.19;-9.59;-8.3;1.18;-1.16;-4.39;1
0.13;-9.59;-8.29;1.54;-1.17;-4.01;1
0.13;-9.51;-8.33;1.83;-1.27;-3.45;1
0.14;-9.5;-8.34;1.4;-1.26;-3.48;1
0.17;-9.59;-8.36;0.44;-0.84;-2.8;1
0.24;-9.59;-8.31;-0.02;0.53;-2.72;1
0.25;-9.63;-8.28;0.22;0.9;-2.29;1
0.22;-9.6;-8.37;0.47;1.03;-2.17;1
0.22;-9.5;-8.43;0.66;0.96;-2.21;1
0.23;-9.54;-8.41;-0.06;0.55;-1.6;1
0.23;-9.56;-8.24;-1.08;0.18;-1.38;1
0.28;-9.68;-8.2;-1.14;-0.03;-1.21;1
0.3;-9.7;-8.18;-0.27;-0.33;-2.16;1
0.28;-9.66;-8.33;0.34;-1.5;-2.13;1
0.33;-9.56;-8.29;-0.11;-2.49;-2.08;1
0.35;-9.51;-8.31;-0.15;-2.88;-2.35;1
0.46;-9.47;-8.26;-0.3;-2.94;-2.08;1
0.41;-9.55;-8.21;-0.88;-2.82;-1.13;1
0.46;-9.62;-8.26;-0.66;-2.4;-0.79;1
0.48;-9.69;-8.3;0.17;-1.62;-0.76;1
0.48;-9.67;-8.36;0.5;-0.19;-0.67;1
0.42;-9.62;-8.38;0.26;0.15;-0.99;1
0.46;-9.55;-8.4;-0.56;-0.14;-1.01;1
0.51;-9.59;-8.31;-1.02;0.1;-1.53;1
0.42;-9.62;-8.32;-0.82;0.16;-1.46;1
0.42;-9.63;-8.35;0.11;-1.08;-1.45;1
0.36;-9.51;-8.43;0.35;-1.65;-1.3;1
0.39;-9.63;-8.49;-0.28;-1.74;-1.04;1
0.39;-9.64;-8.46;-0.62;-1.94;-1.1;1
0.42;-9.69;-8.36;-0.54;-1.78;-1.04;1
0.57;-9.62;-8.28;-0.1;-1.15;-1.02;1
0.49;-9.61;-8.38;-0.03;-1.01;-0.99;1
0.54;-9.54;-8.45;-0.02;0.32;-1.17;1
0.52;-9.63;-8.45;0.15;0.61;-1.11;1
0.39;-9.69;-8.47;0.05;0.45;-1.1;1
0.43;-9.7;-8.43;0.06;-0.14;-1.47;1
0.42;-9.61;-8.46;-0.42;-1.03;-1.93;1
0.39;-9.6;-8.26;-0.53;-1.68;-1.59;1
0.46;-9.64;-8.32;-0.47;-2.42;-1.28;1
0.47;-9.61;-8.23;-0.57;-2.68;-1.3;1
0.45;-9.66;-8.46;-0.21;-2.78;-1.01;1
0.5;-9.58;-8.38;-0.24;-2.33;-0.85;1
0.5;-9.68;-8.41;0.31;-0.71;-0.46;1
0.54;-9.68;-8.47;0.63;0.96;-0.79;1
0.5;-9.54;-8.45;0.05;0.98;-0.95;1
0.57;-9.66;-8.37;-0.37;-0.13;-0.47;1
0.45;-9.6;-8.4;-0.31;0.33;-1.03;1
0.41;-9.67;-8.42;-0.1;0.67;-0.91;1
0.36;-9.63;-8.37;0.27;0.29;-0.63;1
0.43;-9.6;-8.45;0.37;-0.44;-0.74;1
0.38;-9.58;-8.41;0.48;-0.1;-0.95;1
0.3;-9.59;-8.45;0.18;0.44;-0.24;1
0.37;-9.59;-8.37;-0.43;-0.12;-0.3;1
0.38;-9.64;-8.44;0.08;-1.19;-0.44;1
0.42;-9.6;-8.48;-0.01;-1.54;-0.68;1
0.36;-9.63;-8.47;-0.32;-1.59;-0.21;1
0.47;-9.67;-8.37;-0.37;-1.44;-0.13;1
0.59;-9.65;-8.31;-0.13;-0.66;-0.65;1
0.56;-9.59;-8.31;-0.06;-0.59;-0.3;1
0.51;-9.55;-8.43;0.34;-0.33;-0.43;1
0.46;-9.6;-8.48;0.37;0.03;-0.28;1
0.44;-9.57;-8.32;0.43;-0.47;0.23;1
0.54;-9.55;-8.36;0.19;-0.42;0.28;1
0.53;-9.69;-8.31;0.01;-0.47;0.59;1
0.56;-9.67;-8.24;0.18;0.11;0.31;1
0.58;-9.57;-8.38;0.4;0.95;0.14;1
0.47;-9.56;-8.35;0.22;0.74;0.05;1
0.58;-9.61;-8.34;-0.12;0.89;0.31;1
0.55;-9.64;-8.45;0.37;1.36;0.13;1
0.53;-9.61;-8.43;0.22;1.53;0.29;1
0.54;-9.64;-8.31;0.12;1.9;0.15;1
0.4;-9.66;-8.45;0.11;2.16;-0.17;1
0.35;-9.65;-8.46;0.3;1.84;-0.22;1
0.35;-9.7;-8.47;0.77;1.4;-0.19;1
0.43;-9.65;-8.57;0.71;0.48;-0.4;1
0.38;-9.61;-8.5;0.46;-0.66;-0.59;1
0.39;-9.58;-8.37;0.17;-1.02;-0.62;1
0.41;-9.63;-8.41;-0.03;-0.69;-0.66;1
0.36;-9.62;-8.42;-0.29;-0.36;-0.59;1
0.37;-9.66;-8.34;-0.15;0.09;-0.62;1
0.41;-9.65;-8.35;0.27;0.72;-0.43;1
0.4;-9.57;-8.36;0.38;1.25;-0.49;1
0.41;-9.59;-8.4;0.24;1.21;0.09;1
0.38;-9.54;-8.44;0.05;1.5;0.25;1
0.46;-9.55;-8.33;-0.1;2.38;0.89;1
0.52;-9.59;-8.35;0.26;2.48;1.7;1
0.55;-9.67;-8.25;1.21;3.35;1.79;1
0.43;-9.65;-8.41;1.34;3.45;1.8;1
0.44;-9.61;-8.39;0.99;2.71;1.66;1
0.41;-9.59;-8.41;0.32;1.67;1.44;1
0.41;-9.57;-8.47;-0.06;0.56;1.12;1
0.48;-9.65;-8.32;-0.1;-0.55;1.21;1
0.54;-9.72;-8.29;0.15;-0.69;0.86;1
0.63;-9.6;-8.32;0.18;-0.83;-0.04;1
0.57;-9.57;-8.39;-0.08;-1.05;-0.06;1
0.56;-9.56;-8.25;-0.24;-1.52;-0.04;1
0.56;-9.66;-8.29;-0.23;-1.27;-0.59;1
0.57;-9.63;-8.22;0.2;-0.68;-1.11;1
0.55;-9.68;-8.25;0.75;-0.27;-1.4;1
0.51;-9.62;-8.37;0.88;0.08;-0.93;1
0.45;-9.57;-8.34;0.88;1.18;-1.09;1
0.45;-9.56;-8.39;0.63;1.39;-0.69;1
0.43;-9.53;-8.27;0.26;1.25;-0.75;1
0.44;-9.61;-8.26;0.47;0.93;-0.37;1
0.33;-9.67;-8.33;0.71;0.91;-0.44;1
0.32;-9.62;-8.43;0.63;1.54;-0.37;1
0.32;-9.58;-8.39;0.25;1.53;-0.21;1
0.24;-9.61;-8.34;0.14;1.31;-0.12;1
0.22;-9.58;-8.33;-0.14;0.19;-0.19;1
0.32;-9.62;-8.37;-0.06;-1;-0.03;1
0.38;-9.6;-8.37;-0.05;-0.8;0.23;1
0.36;-9.61;-8.36;-0.13;-0.14;0.62;1
0.41;-9.59;-8.37;0.27;0.43;0.63;1
0.43;-9.58;-8.39;0.4;0.72;0.65;1
0.41;-9.6;-8.4;0.07;0.45;0.35;1
0.35;-9.53;-8.25;-0.79;0.08;0.39;1
0.48;-9.66;-8.22;-0.86;-0.06;0.67;1
0.5;-9.71;-8.25;-0.07;-0.73;0.21;1
0.5;-9.68;-8.29;0.45;-1.03;-0.26;1
0.45;-9.67;-8.54;0.24;-0.81;-0.63;1
0.42;-9.65;-8.39;-0.14;-0.61;-0.58;1
0.37;-9.52;-8.38;-0.15;-0.94;-0.71;1
0.42;-9.57;-8.4;-0.53;-1.23;-0.38;1
0.47;-9.62;-8.27;-0.4;-1.17;-0.24;1
0.48;-9.67;-8.3;-0.12;-1.19;0.14;1
0.53;-9.6;-8.38;-0.05;-0.68;0.26;1
0.45;-9.56;-8.5;-0.28;-0.48;0.11;1
0.37;-9.59;-8.26;-0.66;-0.01;0.23;1
0.38;-9.63;-8.22;-0.18;0.39;0.57;1
0.38;-9.62;-8.28;0.14;1.18;0.79;1
0.44;-9.67;-8.29;-0.24;1.53;1;1
0.49;-9.6;-8.35;-0.12;0.95;1.02;1
0.46;-9.54;-8.37;0.05;0.2;1.04;1
0.4;-9.51;-8.41;-0.05;-0.98;0.87;1
0.43;-9.52;-8.37;-0.72;-1.14;0.76;1
0.47;-9.62;-8.35;-1.19;-1.26;0.86;1
0.49;-9.75;-8.25;-0.53;-0.47;0.82;1
0.49;-9.69;-8.31;0.27;0.54;0.4;1
0.57;-9.61;-8.28;0.4;1.41;0.11;1
0.54;-9.59;-8.32;0.27;1.16;0.11;1
0.42;-9.61;-8.32;0.62;0.84;-0.01;1
0.48;-9.59;-8.34;0.34;0.42;0.23;1
0.43;-9.57;-8.42;-0.44;-0.2;0.17;1
0.46;-9.58;-8.35;-0.6;0.24;-0.1;1
0.46;-9.66;-8.32;-0.41;0.29;0.31;1
0.43;-9.65;-8.36;-0.06;-0.23;0.41;1
0.52;-9.52;-8.32;0.11;-0.33;-0.08;1
0.57;-9.62;-8.32;-0.41;0.38;0.57;1
0.49;-9.75;-8.37;-0.12;1.16;0.59;1
0.48;-9.68;-8.36;0.52;1.67;0.1;1
0.42;-9.58;-8.42;0.6;2.06;-0.55;1
0.39;-9.55;-8.45;0.31;0.97;-0.45;1
0.38;-9.47;-8.42;-0.35;0.14;-0.1;1
0.43;-9.66;-8.34;0;-0.46;0.16;1
0.42;-9.67;-8.35;0.79;-0.58;-0.22;1
0.41;-9.62;-8.37;0.76;-0.46;-0.64;1
0.38;-9.59;-8.44;0.01;-0.2;-0.86;1
0.38;-9.59;-8.37;0.06;-0.32;-0.56;1
0.4;-9.55;-8.39;-0.02;-0.41;-0.5;1
0.39;-9.57;-8.36;-0.79;-0.85;-0.5;1
0.38;-9.63;-8.23;-0.44;-1.49;-0.23;1
0.42;-9.71;-8.19;0.3;-1.06;-0.34;1
0.49;-9.66;-8.3;0.85;-0.26;-0.3;1
0.42;-9.62;-8.38;0.36;-0.48;-0.04;1
0.41;-9.56;-8.36;-0.15;-0.09;-0.11;1
0.43;-9.54;-8.33;-0.41;-0.3;0.19;1
0.42;-9.56;-8.2;-0.73;-0.51;0;1
0.43;-9.6;-8.2;-0.46;-0.64;-0.01;1
0.49;-9.65;-8.16;0.56;-0.61;-0.2;1
0.51;-9.61;-8.29;0.51;0.05;0.37;1
0.48;-9.59;-8.48;0.19;0.32;-0.02;1
0.44;-9.56;-8.45;-0.33;0.39;-0.06;1
0.39;-9.58;-8.43;-1.13;0.22;0.25;1
0.4;-9.65;-8.25;-0.98;0.52;0.31;1
0.45;-9.65;-8.28;-0.1;0.28;0.24;1
0.51;-9.6;-8.24;0.4;-0.71;0.6;1
0.5;-9.61;-8.28;0.5;-0.91;0.65;1
0.47;-9.59;-8.43;0.18;-0.18;0.31;1
0.45;-9.56;-8.37;-0.54;0.01;-0.08;1
0.39;-9.61;-8.39;-0.63;-0.06;0.05;1
0.41;-9.62;-8.39;0.02;-0.4;0.11;1
0.39;-9.62;-8.39;0.3;-0.88;0.3;1
0.38;-9.57;-8.48;0.32;-1.76;0.52;1
0.36;-9.58;-8.42;0.17;-1.76;0.35;1
0.34;-9.59;-8.4;-0.21;-2.05;1.04;1
0.34;-9.63;-8.35;-0.23;-2.06;1.05;1
0.3;-9.65;-8.42;0.13;-2.14;1.12;1
0.31;-9.62;-8.45;0.11;-1.59;1.7;1
0.43;-9.59;-8.36;0.08;-1.46;2.4;1
0.44;-9.64;-8.36;-0.11;-2.17;2.25;1
0.54;-9.64;-8.31;-0.49;-2.92;2.02;1
0.52;-9.67;-8.37;0.17;-2.63;1.47;1
0.51;-9.65;-8.45;0.14;-2.14;0.65;1
0.45;-9.44;-8.55;-0.71;-2.57;0.54;1
0.45;-9.47;-8.38;-0.89;-3.15;0.77;1
0.44;-9.58;-8.3;-0.53;-2.81;0.91;1
0.45;-9.66;-8.27;-0.2;-3.2;0.73;1
0.54;-9.63;-8.27;-0.29;-3.45;0.34;1
0.53;-9.65;-8.31;-0.06;-3.21;0.36;1
0.58;-9.61;-8.32;0.3;-2.46;0.57;1
0.49;-9.55;-8.45;0.25;-1.75;0.2;1
0.49;-9.62;-8.44;-0.01;-0.84;0.22;1
0.43;-9.6;-8.29;0.26;-0.24;0.28;1
0.51;-9.56;-8.29;0.05;0.44;0.49;1
0.46;-9.62;-8.33;-0.15;0.91;0.16;1
0.43;-9.58;-8.26;-0.07;0.9;0.23;1
0.4;-9.62;-8.35;0.47;0.9;0.65;1
0.38;-9.56;-8.38;0.32;0.69;0.73;1
0.3;-9.52;-8.3;-0.17;-0.57;0.74;1
0.22;-9.58;-8.33;-0.38;-1.36;1.08;1
0.29;-9.68;-8.37;-0.68;-0.61;1.53;1
0.31;-9.7;-8.29;-0.74;-0.17;1.63;1
0.42;-9.74;-8.16;0;-0.49;1.51;1
0.36;-9.63;-8.29;0.55;-0.77;0.96;1
0.48;-9.58;-8.37;0.32;-0.87;0.93;1
0.37;-9.56;-8.43;-0.32;-1.09;0.76;1
0.44;-9.58;-8.42;-0.59;-1.24;0.98;1
0.39;-9.61;-8.35;-0.54;-0.68;1.21;1
0.51;-9.65;-8.29;-0.7;0.05;0.91;1
0.44;-9.67;-8.24;-0.34;-0.15;0.87;1
0.48;-9.66;-8.29;0.05;-0.42;0.76;1
0.44;-9.63;-8.48;0.06;-1.01;0.63;1
0.38;-9.63;-8.45;-0.3;-0.95;0.27;1
0.46;-9.65;-8.39;-0.56;-0.49;0.26;1
0.48;-9.66;-8.27;-0.63;0.19;-0.16;1
0.46;-9.58;-8.27;0.24;0.03;0.13;1
0.34;-9.58;-8.32;0.32;-0.55;0.08;1
0.44;-9.56;-8.36;-0.05;-0.1;0.51;1
0.41;-9.56;-8.42;-0.37;-0.01;0.83;1
0.45;-9.63;-8.48;-0.27;0.62;0.67;1
0.49;-9.63;-8.38;-0.16;0.95;0.17;1
0.39;-9.59;-8.41;-0.06;0.65;-0.19;1
0.35;-9.63;-8.33;0.08;0.06;-0.32;1
0.33;-9.56;-8.32;0.05;-0.98;-0.17;1
0.37;-9.58;-8.33;-0.4;-1.51;0.45;1
0.42;-9.64;-8.41;-0.35;-0.88;0.28;1
0.46;-9.69;-8.39;-0.02;-0.1;0.52;1
0.36;-9.57;-8.38;0.22;0.61;0.71;1
0.31;-9.55;-8.43;0.05;0.98;0.49;1
0.31;-9.55;-8.48;-0.03;0.84;0.7;1
0.36;-9.59;-8.34;0.04;0.76;0.47;1
0.34;-9.62;-8.37;0.09;0.34;0.6;1
0.44;-9.65;-8.41;-0.28;0.28;0.17;1
0.37;-9.63;-8.32;-0.24;-0.04;0.37;1
0.46;-9.57;-8.34;0.05;-0.74;0.21;1
0.32;-9.6;-8.39;0.26;-0.42;0.28;1
0.42;-9.62;-8.38;0.21;-0.29;0.47;1
0.37;-9.64;-8.44;0.07;0.16;0.51;1
0.37;-9.61;-8.47;0.01;0.16;0.44;1
0.35;-9.56;-8.37;-0.21;-0.1;0.34;1
0.39;-9.64;-8.3;-0.3;-1.02;0.37;1
0.41;-9.68;-8.24;-0.24;-1.63;0.38;1
0.37;-9.69;-8.37;0.29;-1.58;0.1;1
0.45;-9.64;-8.35;0.18;-1.14;-0.14;1
0.44;-9.64;-8.45;-0.05;0.14;-0.24;1
0.48;-9.6;-8.34;-0.08;1.59;-0.21;1
0.43;-9.59;-8.32;-0.07;1.45;0.16;1
0.39;-9.55;-8.27;0.14;1.18;0.12;1
0.37;-9.59;-8.34;-0.26;0.48;0.5;1
0.42;-9.63;-8.28;-0.39;0.35;0.6;1
0.46;-9.65;-8.32;-0.11;1.03;1.09;1
0.45;-9.67;-8.34;0.29;1.92;0.53;1
0.42;-9.61;-8.39;0.24;2.44;0.76;1
0.38;-9.68;-8.35;0.37;2.74;0.7;1
0.41;-9.65;-8.35;0.14;2.85;0.71;1
0.41;-9.58;-8.39;0.14;2.09;0.79;1
0.44;-9.63;-8.36;0.28;1.72;0.5;1
0.43;-9.58;-8.38;0.09;1.76;0.67;1
0.33;-9.6;-8.37;0.27;1.7;0.21;1
0.27;-9.63;-8.4;0.32;1.87;-0.08;1
0.32;-9.67;-8.44;-0.15;1.94;-0.3;1
0.31;-9.63;-8.43;-0.31;2.05;-0.56;1
0.41;-9.61;-8.36;-0.01;0.79;-0.46;1
0.37;-9.52;-8.35;0.19;0.3;-0.31;1
0.3;-9.52;-8.4;0.47;-0.26;-0.66;1
0.18;-9.48;-8.46;0.37;-0.04;-0.54;1
0.16;-9.56;-8.38;-0.27;0.67;-0.11;1
0.31;-9.74;-8.37;-0.23;2.06;-0.01;1
0.38;-9.71;-8.28;0.26;2.92;0.55;1
0.45;-9.65;-8.3;1.16;2.76;0.08;1
0.27;-9.53;-8.42;0.37;1.83;0.07;1
0.24;-9.56;-8.43;0.05;1.03;0.16;1
0.14;-9.63;-8.47;-0.27;0.35;0.5;1
0.23;-9.65;-8.46;-0.25;0.5;0.57;1
0.44;-9.68;-8.34;-0.35;1.94;0.25;1
0.49;-9.67;-8.37;0.54;2.35;0.33;1
0.47;-9.59;-8.42;0.85;3.16;-0.14;1
0.41;-9.53;-8.48;0.43;2.42;-0.44;1
0.32;-9.55;-8.37;-0.45;1.99;-0.42;1
0.31;-9.64;-8.18;-0.58;2.11;-0.08;1
0.33;-9.73;-8.19;0.18;2.13;-0.34;1
0.37;-9.58;-8.29;0.76;1.64;-0.37;1
0.33;-9.53;-8.45;0.59;0.47;-0.6;1
0.23;-9.54;-8.36;0.14;-0.82;-0.46;1
0.27;-9.56;-8.29;-0.53;-1.92;-0.04;1
0.27;-9.61;-8.19;-0.73;-2.2;0.15;1
0.33;-9.7;-8.25;-0.28;-2.01;0.12;1
0.31;-9.67;-8.33;0.13;-1.79;-0.08;1
0.31;-9.61;-8.48;-0.06;-1.88;0.05;1
0.31;-9.58;-8.41;-0.35;-2.13;0.36;1
0.37;-9.58;-8.38;-0.84;-2.68;0.34;1
0.35;-9.59;-8.24;-1.02;-2.56;1.03;1
0.51;-9.64;-8.23;-0.99;-1.94;0.92;1
0.47;-9.62;-8.29;-0.15;-1.31;0.27;1
0.38;-9.57;-8.36;0.43;-1.45;-0.22;1
0.38;-9.52;-8.49;-0.28;-1.31;-0.02;1
0.35;-9.56;-8.46;-0.73;-0.6;-0.08;1
0.47;-9.64;-8.28;-0.5;-0.91;-0.04;1
0.47;-9.59;-8.35;-0.33;-1.09;-0.27;1
0.45;-9.59;-8.21;-0.28;-1.24;-0.22;1
0.42;-9.67;-8.39;-0.34;-0.56;0.49;1
0.36;-9.65;-8.48;0.05;0.06;0.34;1
0.46;-9.59;-8.61;-0.19;0.62;0.19;1
0.35;-9.61;-8.46;-0.4;1.25;-0.5;1
0.4;-9.66;-8.36;-0.39;1.67;-0.5;1
0.33;-9.62;-8.27;-0.21;1.22;-0.01;1
0.27;-9.62;-8.37;-0.17;0.7;0.26;1
0.36;-9.6;-8.37;-0.44;0.31;0.76;1
0.39;-9.68;-8.45;-0.14;0.38;0.71;1
0.37;-9.68;-8.35;-0.11;1.4;0.28;1
0.42;-9.62;-8.36;-0.09;1.56;0.02;1
0.34;-9.66;-8.36;0.11;1.69;-0.32;1
0.43;-9.64;-8.44;0.52;1.59;0.19;1
0.39;-9.59;-8.43;0.31;1.34;0.19;1
0.43;-9.53;-8.43;0.14;1.5;0.26;1
0.37;-9.57;-8.44;-0.27;2.33;-0.01;1
0.42;-9.61;-8.44;-0.31;2.87;0.15;1
0.29;-9.69;-8.4;0.21;2.8;-0.05;1
0.25;-9.59;-8.4;0.45;2.02;-0.09;1
0.29;-9.64;-8.49;0.21;0.72;0.34;1
0.34;-9.63;-8.39;0.2;-0.73;0.31;1
0.3;-9.56;-8.34;-0.11;-1.38;-0.15;1
0.3;-9.54;-8.36;-0.47;-1.42;0.05;1
0.33;-9.61;-8.44;-0.41;-0.62;0;1
0.41;-9.61;-8.32;-0.09;-0.03;0.19;1
0.42;-9.61;-8.48;0.2;0.64;0.22;1
0.47;-9.61;-8.35;0.34;0.77;0.33;1
0.45;-9.57;-8.36;0.2;1.31;-0.08;1
0.39;-9.59;-8.36;0.01;0.83;-0.09;1
0.34;-9.69;-8.2;0.13;0.9;-0.3;1
0.34;-9.6;-8.35;0.18;0.8;-0.1;1
0.33;-9.57;-8.4;-0.01;0.51;-0.28;1
0.4;-9.65;-8.37;-0.18;-0.12;-0.12;1
0.37;-9.67;-8.43;-0.04;-0.1;-0.29;1
0.31;-9.59;-8.32;0.09;0.17;-0.01;1
0.35;-9.58;-8.36;-0.24;0.38;-0.02;1
0.38;-9.64;-8.35;-0.15;0.46;0.23;1
0.39;-9.72;-8.29;0.19;0.92;-0.02;1
0.39;-9.63;-8.36;0.19;0.96;-0.15;1
0.36;-9.62;-8.41;-0.3;0.45;0.03;1
0.39;-9.63;-8.31;-0.05;0.34;0.17;1
0.45;-9.62;-8.4;0.01;0.5;-0.15;1
0.38;-9.54;-8.37;0.03;0.26;-0.49;1
0.33;-9.64;-8.41;0.18;-0.46;-1.01;1
0.34;-9.57;-8.37;-0.03;-0.71;-0.88;1
0.32;-9.64;-8.34;-0.25;-1.15;-0.24;1
0.35;-9.63;-8.39;-0.08;-0.97;-0.68;1
0.38;-9.61;-8.44;0.3;-0.06;-0.5;1
0.37;-9.61;-8.37;0.15;-0.15;-0.43;1
0.32;-9.54;-8.37;-0.19;0.17;-0.07;1
0.36;-9.52;-8.4;-0.26;0.22;-0.08;1
0.32;-9.63;-8.31;-0.34;-0.15;0.2;1
0.36;-9.67;-8.37;-0.34;0.07;0.49;1
0.39;-9.69;-8.35;-0.2;0.82;0.79;1
0.38;-9.67;-8.33;-0.09;1.23;0.54;1
0.32;-9.62;-8.38;0.01;0.54;0.56;1
0.36;-9.58;-8.38;-0.33;-0.56;0.37;1
0.38;-9.58;-8.43;-0.53;-0.88;0.68;1
0.38;-9.64;-8.32;-0.51;-0.64;1.03;1
0.52;-9.67;-8.37;-0.18;0.58;0.6;1
0.54;-9.63;-8.42;0.33;1.78;0.44;1
0.51;-9.6;-8.44;0.12;2.03;0.81;1
0.53;-9.51;-8.36;-0.31;2.28;0.74;1
0.54;-9.56;-8.35;-0.71;2.82;0.97;1
0.55;-9.68;-8.3;-0.4;3.18;1.12;1
0.48;-9.63;-8.39;-0.09;3.95;1.31;1
0.36;-9.66;-8.44;0.22;4.6;2.06;1
0.31;-9.57;-8.52;-0.11;4.76;2.33;1
0.13;-9.52;-8.51;-0.6;3.82;2.78;1
0.22;-9.61;-8.33;-0.88;3.17;3.2;1
0.25;-9.66;-8.32;-0.84;2.08;2.73;1
0.23;-9.67;-8.2;-0.66;0.61;2.25;1
0.22;-9.67;-8.32;-0.36;-1.49;1.87;1
0.26;-9.63;-8.29;-0.32;-3.92;1.69;1
0.38;-9.52;-8.23;-0.77;-5.62;1.28;1
0.55;-9.56;-8.16;-0.93;-6.09;0.92;1
0.63;-9.64;-8.07;-0.79;-5.12;0.54;1
0.66;-9.64;-8.19;-0.24;-3.27;-0.01;1
0.75;-9.63;-8.31;0.08;-2.01;-0.23;1
0.76;-9.59;-8.2;0.14;-0.51;-0.38;1
0.71;-9.6;-8.21;-0.5;2.54;0;1
0.75;-9.62;-8.19;-1.37;5.88;0.69;1
0.61;-9.71;-8.17;-1.46;8.58;1.21;1
0.53;-9.62;-8.12;-1.44;10.05;1.43;1
0.41;-9.57;-8.16;-1.22;10.81;2.2;1
0.4;-9.56;-8.11;-1.19;11.55;2.54;1
0.37;-9.69;-8.18;-1.41;12.95;2.92;1
0.36;-9.71;-8.31;-0.66;14.12;3.33;1
0.6;-9.53;-8.21;-0.24;15.86;3.1;1
0.58;-9.48;-8.12;-0.18;16.85;3.65;1
0.65;-9.5;-8.15;0.34;18.61;5;1
0.7;-9.59;-8.15;-0.02;19.16;6.02;1
0.84;-9.66;-8.24;-0.94;20.52;5.63;1
0.94;-9.78;-8.26;-1.53;22.96;5.5;1
0.83;-9.73;-8.3;-1.13;25.29;5.18;1
0.75;-9.76;-8.35;-1.02;26.12;4.8;1
0.71;-9.73;-8.41;-0.77;26.12;3.46;1
0.58;-9.49;-8.4;0.65;25.93;0.98;1
0.39;-9.3;-8.5;2.82;23.29;-1.43;1
0.02;-9.19;-8.77;4.37;18.06;-2.72;1
-0.41;-9.2;-8.93;5.32;9.27;-3.79;1
-1.11;-9.47;-9.2;5.54;-3.65;-3.97;1
-1.61;-9.73;-9.38;4.43;-19.75;-3.97;1
-1.95;-9.78;-9.25;3.43;-36.28;-5.14;1
-1.9;-9.53;-9.36;2.46;-54.4;-6.14;1
-1.61;-9.16;-9.31;1.76;-70.53;-7.08;1
-1.09;-9.02;-9.3;1.54;-81.88;-5.88;1
-0.25;-9.33;-9.5;1.91;-85.66;-1.97;1
0.92;-9.84;-9.73;4.52;-80.27;1.27;1
1.82;-10.31;-10.18;7.5;-67.43;1.18;1
2.29;-10.46;-10.61;9.3;-49.55;-0.79;1
2.21;-10.41;-10.88;9.95;-28.32;-2.81;1
2.04;-10.2;-10.92;10.26;-5.29;-3.8;1
1.58;-9.91;-10.71;12.1;14.93;-3.93;1
0.92;-9.95;-10.3;15.56;32.12;-2.74;1
0.32;-9.9;-10.13;18.85;47.21;-0.61;1
-0.28;-9.99;-10.15;21.33;56.41;1.92;1
-0.66;-9.91;-10;22.61;58.09;3.12;1
-1.18;-9.56;-9.69;21.7;52.32;4.16;1
-1.56;-9.25;-9.25;19.48;42.36;6.03;1
-1.8;-9.38;-8.81;17.63;31.25;9.68;1
-1.78;-9.65;-8.5;17.39;21.7;13.41;1
-1.55;-9.7;-8.37;17.47;13.69;16.72;1
-1.06;-9.71;-8.55;15.14;9.74;21.76;1
-0.33;-9.52;-8.66;9.49;10.41;26.5;1
0.02;-9.47;-8.24;4.42;16.02;30.73;1
0.07;-9.63;-7.28;1.97;22.51;36.74;1
-0.35;-9.66;-6.5;2.79;26.37;43.82;1
-1.04;-9.58;-6.18;4.14;26.42;50.47;1
-1.93;-9.34;-6.12;3.97;21.92;57.89;1
-2.57;-9.35;-6.34;2.62;16.7;65.72;1
-2.94;-9.33;-6.53;-0.16;13.27;73.36;1
-3.06;-9.57;-6.83;-4.85;11.58;80.33;1
-3.31;-10.17;-7.11;-10.24;11.61;86.21;1
-3.54;-10.75;-7.51;-14.34;13.85;91.18;1
-3.49;-10.95;-8.08;-16.34;16.99;94.78;1
-3.53;-10.35;-9.12;-19.55;18.83;96.79;1
-3.53;-9.58;-9.91;-27.23;18.09;98.83;1
-3.57;-9.45;-9.84;-37.02;10.67;101.1;1
-3.53;-9.71;-9.25;-42.41;-3.75;104.04;1
-3.37;-9.83;-8.35;-41.99;-18.26;104.34;1
-2.84;-9.89;-7.68;-39.95;-25.39;101.52;1
-2.33;-9.84;-7.34;-36.28;-26.47;96.47;1
-2.04;-9.65;-7.28;-33.52;-28.65;88.95;1
-1.85;-9.57;-7.35;-32.94;-31.65;82.92;1
-1.2;-9.2;-7.18;-32.61;-27.66;77.7;1
-0.36;-8.77;-7.41;-34.24;-19.2;70.83;1
0.4;-8.57;-7.5;-36.12;-13.59;60.26;1
0.82;-8.48;-7.29;-35.02;-5.04;47.41;1
0.75;-8.44;-7.33;-31.87;6.29;34.57;1
0.17;-8.55;-7.66;-29.37;12.74;22.26;1
-0.73;-8.48;-7.88;-27.28;13.16;12.25;1
-1.51;-8.46;-7.87;-24.28;11.92;3.26;1
-2.17;-8.4;-7.77;-20.39;10.61;-4.76;1
-2.45;-8.36;-7.92;-17.01;9.24;-12.19;1
-2.78;-8.36;-8.09;-14.89;6.77;-19.04;1
-2.99;-8.33;-8.13;-13.66;2.88;-24.55;1
-3.06;-8.22;-8.02;-12.45;-3.55;-29.03;1
-3.17;-8.17;-7.9;-11.8;-10.82;-31.83;1
-3.23;-7.97;-7.91;-11.8;-16.53;-33.99;1
-3.24;-7.88;-8.37;-13.65;-18.4;-35.26;1
-3.22;-7.83;-8.96;-16.8;-14.52;-36.46;1
-3.17;-7.85;-9.22;-20.41;-6.94;-36.37;1
-3.06;-7.97;-9.34;-23.66;1.25;-35.96;1
-2.73;-8.31;-9.24;-25.76;10.96;-36.3;1
-2.54;-8.77;-8.92;-26.31;20.29;-37.78;1
-2.66;-9.02;-8.67;-25.63;25.34;-40.42;1
-3.03;-9.26;-8.34;-23.89;26.36;-43.64;1
-3.67;-9.26;-8.05;-21.86;26.25;-45.37;1
-4.44;-9.09;-8.02;-19.83;24.66;-45.66;1
-4.9;-8.73;-8.32;-20.53;21.64;-42.8;1
-5.05;-8.54;-8.34;-21.95;17.6;-38.48;1
-4.58;-8.56;-8.44;-22.1;12.87;-33.53;1
-3.72;-8.58;-8.57;-21.79;7.87;-29.35;1
-2.81;-8.8;-9;-20.86;9.96;-25.91;1
-2.01;-9.03;-9.25;-20.82;16.41;-24.61;1
-1.26;-8.96;-9.01;-19.42;19.48;-25.62;1
-0.73;-8.97;-8.88;-17.77;24.31;-30.02;1
-0.66;-9.23;-8.76;-16.21;28.84;-35.01;1
-0.69;-10.09;-8.27;-13.42;33.31;-38.43;1
-1.02;-11.09;-7.65;-9.12;39.96;-41.36;1
-1.98;-11.29;-7.74;-4.57;48.12;-43.31;1
-3.71;-11.52;-8.45;-5.08;57.68;-39.43;1
-5.27;-11.17;-9.11;-7.34;59.04;-30.78;1
-6;-10;-10.28;-9.66;30.84;-23.18;1
-5.34;-8.69;-11.21;-17.5;-21.42;-18.44;1
-3.16;-8.78;-10.42;-24.21;-59.63;-15.37;1
-0.1;-9.78;-8.94;-21.63;-66.88;-16.14;1
1.69;-9.75;-8.42;-14.59;-56.26;-21.72;1
2.37;-9.42;-9.28;-10.9;-40.71;-27.56;1
2.55;-8.93;-10.51;-10.37;-26.62;-33.53;1
2.16;-8.82;-11.44;-12;-18.52;-38.48;1
1.09;-9.13;-11.66;-15.8;-17.29;-40.11;1
-0.05;-9.56;-11.36;-18.66;-24.5;-39.2;1
-0.66;-9.87;-11;-19.05;-39.8;-37.45;1
-1.3;-10.28;-11.14;-18.21;-52.67;-35.25;1
-1.56;-10.52;-11.65;-16.66;-54.66;-32.34;1
-0.86;-10.29;-12.02;-17.31;-52.68;-31.66;1
0.32;-10.1;-11.82;-18.31;-48.3;-32.3;1
0.84;-10.4;-11.12;-14.86;-37.39;-31.63;1
0.45;-10.39;-10.88;-8.86;-21.57;-29.14;1
-0.28;-9.91;-11.32;-4.44;-8.71;-26.93;1
-0.75;-9.57;-12.01;-4.31;-4.03;-24.09;1
-0.77;-9.41;-12.22;-6.62;-1.73;-20.81;1
-0.29;-9.56;-12.27;-8.4;2.24;-17.96;1
0.19;-9.83;-12.05;-9.6;5.97;-17.76;1
0.4;-9.82;-11.42;-8.76;7.95;-20.06;1
0.47;-9.75;-11.01;-6.34;9.13;-22.3;1
0.4;-9.66;-10.75;-3.99;9.29;-23.39;1
0.4;-9.7;-10.62;-1.53;6.57;-24.5;1
0.25;-9.87;-10.65;0.43;2.48;-25.28;1
0.02;-9.74;-10.69;2.33;-1.48;-26.35;1
-0.04;-9.34;-10.83;3.4;-5.2;-27.22;1
-0.18;-9.27;-10.95;2.46;-8.62;-27.11;1
-0.16;-9.44;-11.08;1.69;-11.64;-26.3;1
0.03;-9.58;-11.33;0.3;-13.58;-26.43;1
0.12;-9.74;-11.42;-1.02;-14.01;-26.98;1
0.18;-9.75;-11.37;-1.94;-12.68;-27.11;1
0.03;-9.91;-11.17;-2.15;-9.76;-27.08;1
-0.1;-10.01;-10.88;-1.25;-5.78;-26.01;1
-0.15;-10.05;-10.62;-0.08;-2.44;-25.13;1
-0.26;-10.03;-10.64;0.69;-0.44;-23.99;1
-0.35;-10;-10.78;0.85;0.8;-23.04;1
-0.39;-10.03;-10.82;1.24;1.93;-21.42;1
-0.28;-10.01;-10.91;1.62;3.64;-19.69;1
-0.11;-9.97;-10.97;2.44;5.53;-18.54;1
-0.07;-10;-11.24;3.76;8.09;-17.57;1
-0.04;-9.91;-11.55;4.65;9.61;-17.53;1
0.03;-9.93;-11.7;4.73;9.28;-17.61;1
0.23;-9.91;-11.63;4.11;7.93;-17.59;1
0.28;-10.28;-11.48;3.52;6.48;-17.79;1
0.47;-10.71;-11.5;2.73;5.35;-17.25;1
0.67;-10.67;-11.22;1.67;4.28;-18.6;1
0.55;-10.32;-10.93;1.53;3.17;-20.5;1
0.29;-9.93;-10.79;2.32;0.86;-22.35;1
-0.07;-9.62;-10.61;3.07;-1.89;-22.72;1
-0.13;-9.62;-10.38;4.37;-4.3;-21.53;1
0.06;-9.68;-10.4;5.46;-8.09;-20.63;1
0.29;-9.65;-10.53;5.72;-12.03;-20.21;1
0.26;-9.52;-10.7;5.23;-15.36;-20.31;1
0.03;-9.57;-10.81;4.76;-17.2;-20.05;1
-0.18;-9.44;-10.95;4.87;-18.06;-19.25;1
-0.03;-9.38;-11.11;5.3;-18.93;-18.09;1
0.12;-9.33;-11.3;5.3;-19.22;-17.12;1
-0.07;-9.34;-11.25;5.15;-17.98;-16.22;1
-0.11;-9.36;-11.22;5.35;-15.69;-13.67;1
-0.22;-9.35;-11.05;5.31;-13.94;-9.18;1
-0.41;-9.19;-10.87;5.53;-12.23;-4.14;1
-0.79;-9.06;-10.97;4.9;-10.32;0.92;1
-1.3;-9.31;-10.75;3.6;-11.81;7.58;1
-1.64;-9.31;-10.5;3.33;-16.66;13.61;1
-2.01;-9.26;-10.27;3.83;-21.39;19.7;1
-2.22;-9.25;-10.03;5.34;-24.3;26.73;1
-2.39;-9.22;-9.97;7.27;-24.44;33.99;1
-2.68;-9.05;-9.5;9.44;-19.39;42.15;1
-3.04;-8.81;-8.84;13.72;-7.88;51.57;1
-3.24;-8.88;-7.47;23.12;4.21;62.83;1
-3.8;-9.07;-8.55;34.92;5.8;75.78;1
-3.99;-8.25;-9.46;38.69;2.19;88.1;1
-3.63;-8.09;-10.15;36.36;2.56;101.8;1
-3.06;-8.27;-10.09;31.8;4.25;115.76;1
-2.26;-9.03;-10.08;29.66;7.63;128.73;1
-1.28;-10.15;-10.21;28.65;19.73;137.74;1
-0.35;-11.03;-10.58;27.65;36.06;141.75;1
0.09;-11.88;-11.3;24.65;42.77;140.09;1
0.02;-12.13;-12.01;18.47;41.37;134.26;1
-0.1;-12.11;-12.44;8.24;42.19;126.85;1
-0.47;-11.82;-12.5;-4.68;41.25;118.73;1
-1.08;-11.34;-11.98;-15.03;36.06;112.54;1
-1.78;-11.03;-11.25;-22.36;26.01;108.5;1
-2.44;-10.63;-10.27;-25.52;14.6;105.13;1
-2.81;-10.59;-9.76;-26.46;-0.36;101.39;1
-2.66;-10.59;-9.27;-26.93;-16.33;97.02;1
-2.49;-10.55;-8.77;-25.69;-30.89;92.11;1
-2.38;-10.28;-8.45;-22.11;-41.94;87.96;1
-2.05;-9.91;-8.58;-18.18;-49.89;84.67;1
-1.96;-9.56;-9.05;-15.86;-53.78;81.05;1
-1.87;-9.16;-9.44;-14.5;-54.95;76.97;1
-1.81;-8.75;-9.51;-14.37;-56.94;72.18;1
-1.72;-8.49;-9.33;-12.76;-57.58;67.58;1
-1.43;-8.23;-9.34;-9.57;-53.91;63.31;1
-1.06;-8.32;-9.42;-6.26;-43.84;58.13;1
-0.47;-8.53;-9.47;-1.94;-30.81;52.01;1
0.06;-8.65;-9.58;2.02;-17.35;44.65;1
0.31;-8.77;-9.79;3.58;-3.69;35.95;1
0.06;-9.03;-9.69;4.78;10.01;24.18;1
-0.52;-9.05;-9.48;6.28;24.3;12.97;1
-1.73;-8.69;-9.46;6.51;36.19;4.52;1
-2.87;-8;-10.26;3.43;45.16;-0.61;1
-3.86;-7.7;-10.39;-3.21;47.61;-4.98;1
-4.92;-7.56;-9.57;-8.12;36.96;-8.85;1
-5.67;-7.6;-9.29;-7.89;18.68;-11.37;1
-5.81;-7.7;-9.47;-5.78;7.15;-14.43;1
-5.65;-7.78;-9.41;-3.66;-4.05;-17.7;1
-5.47;-7.83;-9.66;-2.24;-18.15;-19.57;1
-5.16;-7.89;-10.1;-3;-28.84;-20.89;1
-4.68;-7.8;-10.27;-4.18;-34.22;-22.06;1
-3.82;-7.63;-10;-5.18;-37.37;-22.45;1
-2.73;-7.61;-9.81;-6.96;-36.54;-23.92;1
-1.88;-7.79;-10.03;-9.94;-28.53;-27.63;1
-1.57;-8.09;-9.92;-13.22;-16.07;-33.63;1
-1.03;-8.15;-9.57;-18.3;-0.39;-41.91;1
0.15;-8.68;-8.43;-17.48;16.73;-53.62;1
0.76;-9.47;-7.47;-3.37;32.28;-65.7;1
-0.35;-10.26;-8.12;10.88;47.32;-75.88;1
-2.54;-10.79;-11.23;5.01;56.25;-84.99;1
-4.8;-11.73;-13.55;-11.63;46.55;-89.41;1
-7.76;-13.07;-13.36;-19.44;22.48;-82.72;1
-9.82;-12.75;-12.3;-25.6;0.83;-66.67;1
-9.32;-11.05;-10.12;-37.2;-41.92;-47.95;1
-5.62;-10.67;-7.98;-34.42;-73.75;-35.87;1
-0.74;-11.06;-9.16;-19.54;-84.36;-38.88;1
3.25;-10.69;-11.29;-17.33;-72.19;-53.84;1
5.04;-10.3;-12.08;-22.73;-54.16;-70.73;1
4.15;-10.62;-11.48;-28.14;-35.97;-83.83;1
1.58;-10.83;-10.33;-26.15;-24.93;-87.58;1
-0.86;-10.2;-9.66;-20.42;-23.48;-81.59;1
-1.94;-9.21;-9.62;-17.51;-24.47;-69.77;1
-2.33;-8.96;-10.17;-14.29;-28.06;-58.33;1
-1.47;-9.31;-10.9;-13.68;-27.08;-51.25;1
-0.06;-10.02;-10.83;-13.79;-19.78;-49.17;1
0.27;-10.52;-10.99;-12.23;-11.23;-51.09;1
-0.09;-10.43;-11.63;-12.29;-1.3;-53.38;1
-0.57;-10.27;-11.88;-15.11;6.3;-54.82;1
-1.32;-10.22;-11.6;-17.33;6.55;-55.06;1
-1.56;-10.03;-11.62;-17.26;6.12;-54.39;1
-1.88;-9.89;-11.5;-17.14;7.13;-52.76;1
-1.75;-9.94;-11.26;-16.62;7.58;-49.8;1
-1.32;-10.04;-11;-14.33;5.68;-46.75;1
-0.87;-10.45;-11.03;-11.41;5.78;-45.37;1
-0.3;-10.41;-11.25;-11.36;6.41;-45.12;1
0.3;-10.54;-11.06;-11.44;3.42;-46.88;1
0.42;-10.27;-10.83;-10.16;2.14;-48.51;1
0.2;-10.26;-10.71;-8.57;2.99;-48.33;1
0.06;-10.31;-10.75;-6.58;6.87;-47.02;1
0.31;-10.26;-10.58;-5.68;9.86;-44.63;1
0.54;-10.22;-10.88;-4.72;13.44;-44.32;1
0.76;-9.64;-11.02;-6.43;19.67;-43.46;1
1.06;-9.85;-10.86;-7.09;26.8;-42.27;1
0.92;-9.91;-11.16;-4.8;32.09;-44.04;1
0.85;-9.9;-10.98;-6.09;38.24;-45.71;1
0.81;-10.11;-10.75;-4.44;39.93;-46.71;1
0.76;-9.78;-11.13;-3.28;41.54;-49.21;1
0.46;-9.65;-11.6;-4.21;40.52;-51;1
0.09;-9.58;-11.81;-5.02;36.91;-54.45;1
-0.43;-9.49;-11.97;-4.79;34.63;-56.91;1
-0.83;-9.34;-12.03;-5.44;31.81;-60.14;1
-1.45;-9.44;-11.9;-6.17;30.91;-61.24;1
-2.08;-9.3;-11.66;-5.1;27.12;-59.99;1
-2.4;-9.15;-11.6;-3.5;24.09;-58.39;1
-2.4;-8.69;-11.62;-1.89;21.9;-56.13;1
-2.18;-8.72;-11.32;1.05;23.92;-51.52;1
-1.97;-8.92;-11.02;5.89;27.65;-45.11;1
-1.66;-9.03;-10.95;10.58;28.46;-37.71;1
-1.61;-9.05;-10.98;14.39;26.64;-30.5;1
-1.4;-9.09;-11.09;17.13;27.19;-23.13;1
-1.33;-9.22;-11.15;20.8;29.48;-15.37;1
-1.41;-9.44;-11.57;23.87;30.93;-8.23;1
-1.6;-10.23;-12.03;25.04;29.29;-0.34;1
-1.88;-10.95;-12.19;24.85;28.57;6.2;1
-2.22;-11.03;-12.28;24.67;28.38;10.89;1
-2.47;-10.41;-11.86;24.74;27.12;16.71;1
-2.62;-9.74;-11.4;25.36;28.67;24.59;1
-2.85;-9.48;-10.56;27.69;36.51;35.54;1
-2.62;-9.51;-9.39;32.18;49.25;48.08;1
-2.28;-9.6;-8.14;40.3;63.19;61.02;1
-1.94;-9.27;-7.45;48.18;74.45;71.47;1
-2.26;-8.34;-8.71;50.66;77.93;80.86;1
-3.2;-7.77;-10.12;43.6;72.01;93.54;1
-3.89;-8.17;-10.93;34.59;62.38;110.34;1
-3.56;-8.59;-11.37;27.15;47.97;124.82;1
-2.98;-9.25;-11.58;18.24;33.74;134.33;1
-2.95;-10.53;-11.19;9.67;13.41;139.04;1
-2.84;-11.9;-11.28;4.13;-5.12;139.05;1
-2.15;-12.58;-11.77;-3.08;-19.43;135.56;1
-1.35;-12.41;-12.15;-14.15;-26.33;129.08;1
-0.64;-11.88;-11.69;-24.94;-23.04;124.16;1
-0.21;-11.77;-10.39;-29.64;-8.96;122.54;1
0.2;-11.88;-9.89;-27.85;-3.26;121.88;1
0.54;-12.01;-9.97;-25.61;-6.41;119.85;1
0.39;-11.97;-10.43;-26.06;-7.88;116.82;1
0.02;-11.61;-10.67;-29.08;-9.71;114.19;1
-0.39;-11.24;-10.6;-33.33;-11.61;111.76;1
-1.12;-10.89;-10.49;-36.27;-14.92;109.12;1
-1.75;-10.6;-10.18;-37.44;-18.96;106.83;1
-2.35;-10.25;-10.15;-36.75;-27.69;104.32;1
-2.59;-9.9;-9.96;-34.71;-41.71;101.47;1
-1.99;-9.59;-9.94;-31.35;-53.38;97.66;1
-1.69;-9.43;-9.77;-27.57;-59.31;93.24;1
-1.17;-9.33;-9.7;-24.98;-58.48;87.05;1
-0.55;-9.33;-9.79;-23.31;-55.17;79.92;1
0;-9.19;-9.78;-22.01;-51.85;71.27;1
0.72;-9.03;-9.62;-18.85;-46.68;61.03;1
1.31;-8.83;-9.54;-14.22;-38.13;49.15;1
1.41;-8.48;-9.76;-10.08;-25.18;36.93;1
1.19;-8.02;-10;-7.68;-10.51;24.98;1
0.79;-7.5;-10.18;-6.78;4.82;13.2;1
0.37;-7.35;-10.18;-7.47;20.16;1.21;1
-0.11;-7.35;-9.79;-9.44;27.06;-11.21;1
-1.26;-7.42;-8.75;-9.31;17.14;-22.15;1
-1.86;-7.73;-8.35;-4.02;9.22;-31.63;1
-2.4;-8.16;-8.67;0.59;11.53;-40.17;1
-3.09;-8.31;-9.05;3.2;11.94;-46.53;1
-4.21;-8.23;-9.59;5.76;8.7;-48.08;1
-5.16;-7.87;-10.53;8.25;10.09;-47.98;1
-5.95;-7.53;-11.26;8.17;15.49;-48.07;1
-6.63;-7.32;-11.6;2.34;20.77;-49.79;1
-7;-7.35;-11.56;-10.2;23.68;-50.08;1
-7.65;-7.61;-11.21;-22.57;19.47;-42.63;1
-8.2;-8.22;-10.69;-30.31;10.77;-28.29;1
-8.17;-8.69;-10.43;-25.52;2.93;-12.04;1
-7.79;-8.06;-11.13;-16.58;-9.35;2.05;1
-6.47;-6.69;-12.71;-20.4;-22.46;8.01;1
-4.48;-6.56;-12.65;-37.5;-31.15;6.54;1
-2.13;-8.94;-10.01;-51.07;-40.83;-0.95;1
-0.45;-13.24;-6.08;-40.71;-53.17;-22.2;1
-1.25;-14.72;-4.84;-10.44;-44.52;-42.28;1
-4.06;-11.4;-6.83;13.76;-20.47;-42.56;1
-6.95;-8.75;-9.45;12.27;2.54;-26.63;1
-6.98;-7.29;-11.68;-0.01;0.61;-5.01;1
-4.27;-6.87;-15.23;-32.87;-38.81;11.15;1
0.43;-9.07;-11.23;-54.15;-39.52;7.86;1
5.63;-11.06;-5.26;-21.63;-11.45;-18.09;1
6.16;-9.6;-7.75;19.98;9.79;-47.72;1
1.46;-6.55;-13.61;14.11;8.93;-60.91;1
-4.57;-6.16;-14.77;-9.49;-1.65;-56.64;1
-7.79;-7.84;-13.01;-15.37;-19.42;-41.2;1
-7.58;-8.52;-12.58;-14.31;-46.54;-20.08;1
-4.38;-8.55;-12.55;-14.92;-72.4;-5.01;1
-1.37;-8.84;-12.18;-17.3;-74.63;0.08;1
0.54;-9.52;-11.23;-12.96;-52.94;-3.83;1
1.39;-9.67;-11.36;-7.92;-21.68;-11.98;1
0.9;-9.5;-11.5;-12.99;0.32;-19.64;1
-0.42;-9.78;-11.2;-14.6;7.67;-26.75;1
-1.72;-10.47;-10.79;-11.58;13.18;-30.42;1
-2.24;-10.91;-10.67;-6.11;13.38;-31.74;1
-1.93;-10.73;-10.58;-3.08;8.23;-33;1
-1.82;-10.84;-10.45;-3.33;2.32;-32.21;1
-1.24;-11.03;-10.29;0.37;0.41;-33.23;1
-0.78;-11.03;-10.87;5.53;-2.1;-38.25;1
-0.89;-10.89;-11.33;7.72;-5.84;-45.28;1
-1.1;-10.93;-11.45;7.66;-11.7;-51.57;1
-1.01;-11.15;-11.53;7.31;-11.6;-54.58;1
-0.95;-11.2;-11.42;5.61;-6.17;-56.28;1
-0.94;-11.2;-11.97;4.89;-1.84;-57.2;1
-1.19;-10.97;-12.05;2.01;-0.6;-59.14;1
-1.36;-11;-11.75;0.65;-0.88;-61.38;1
-1.73;-10.93;-11.48;-0.29;0.19;-63.3;1
-2.03;-11.17;-11.45;-1.64;-1.93;-63.33;1
-2.14;-10.83;-11.26;-0.53;-2.19;-62.9;1
-2.1;-10.42;-11.7;0.49;-4.53;-63.14;1
-2.34;-10.05;-11.66;-2.76;-4.18;-62.85;1
-2.71;-10.48;-11.41;-4.91;-6.54;-62.6;1
-3.05;-10.59;-10.98;-4.59;-9.64;-61.1;1
-3.25;-10.01;-10.79;-4.96;-12.91;-59.21;1
-3.26;-9.97;-11.16;-4.74;-8.32;-55.09;1
-2.96;-10.07;-11.49;-4.26;-0.49;-51.15;1
-3.21;-9.7;-11.24;-4.53;-1.29;-53.11;1
-3.21;-9.35;-10.88;-2.97;5.95;-52.88;1
-3.57;-8.75;-11.25;0.12;11.79;-50.33;1
-3.94;-8.63;-11.05;0.63;19.87;-45.14;1
-3.86;-8.65;-10.26;5.04;24.83;-38.46;1
-3.78;-8.37;-9.88;12.92;22.94;-33.12;1
-3.85;-8.21;-10.24;20.54;17.61;-25.89;1
-3.79;-8.09;-11.03;25.54;14.96;-14.81;1
-3.85;-8.46;-11.09;27.55;19.72;-2.84;1
-4.67;-8.66;-9.93;31.52;29.67;9.29;1
-5.17;-8;-9.22;40.14;36.38;24.18;1
-5.33;-7.17;-8.89;46.74;43.96;39.26;1
-5.65;-6.69;-9.59;48.65;44.67;59.47;1
-6.06;-7.2;-10.73;44.37;57.28;84.22;1
-5.75;-8.6;-10.64;42.64;63.78;107.99;1
-4.69;-10.23;-10.93;40.08;63.38;122.08;1
-3.77;-11.17;-11.24;32.14;57.47;128.36;1
-2.91;-11.11;-10.73;26.84;43.25;129.62;1
-2.22;-10.86;-10.26;23.12;28.09;128.64;1
-1.9;-10.66;-10.75;17.75;26.71;127.03;1
-2.21;-10.44;-10.71;10.62;30.96;128.34;1
-2.41;-10.54;-10.69;6.46;22.9;131.87;1
-2.76;-10.75;-10.53;3.3;9.24;134.89;1
-3.23;-11.42;-10.39;0.49;-6.72;139.04;1
-3.27;-11.86;-10.42;-1.49;-20.21;141.4;1
-2.74;-12;-10.7;-3.6;-24.59;140.86;1
-2;-11.87;-10.89;-7.12;-21.58;137.2;1
-1.62;-11.66;-10.91;-11.76;-17.73;132.49;1
-1.22;-11.39;-10.47;-14.35;-16.17;125.81;1
-0.95;-11.29;-9.92;-13.43;-15.54;116.63;1
-1.12;-10.97;-9.48;-9.95;-17.79;105.86;1
-1.16;-10.62;-9.44;-7.63;-17.34;96.31;1
-1.31;-10.74;-9.51;-8.57;-16.29;87.4;1
-1.45;-10.58;-9.43;-9.24;-14.75;79.38;1
-1.41;-10.25;-9.34;-8.47;-13.41;70.97;1
-1.33;-9.76;-8.93;-5.29;-17.97;61.18;1
-1.19;-8.95;-9.39;-3.74;-21.43;49.8;1
-0.72;-8.4;-9.31;-3.99;-25.1;35.15;1
-0.16;-7.98;-8.71;-3.12;-28.04;18.52;1
0.48;-7.56;-8.75;-1.75;-28.21;1.98;1
0.86;-7.28;-8.81;-1.18;-27.56;-14.72;1
0.85;-6.96;-9.1;-1.82;-25.63;-31.15;1
0.97;-6.44;-9.77;-5.38;-16.51;-48.77;1
0.55;-5.98;-10.5;-13.37;-2.35;-67.53;1
-0.33;-6.25;-9.7;-20.86;10.51;-84.69;1
-1.49;-7.02;-8.5;-20.93;22.32;-95.3;1
-2.14;-8.38;-8.67;-15.63;51.74;-102.21;1
-2.3;-9.47;-9.17;-10.85;87.08;-109.16;1
-3.02;-9.94;-8.16;-2.61;92.03;-115.72;1
-4.41;-9.47;-8.45;9.87;77.22;-120.94;1
-6.58;-8.96;-10.43;23.89;67.87;-120.69;1
-8.61;-7.9;-13.14;28.13;70.57;-112.8;1
-9.75;-6.33;-15.58;10.78;77.54;-100.33;1
-10.14;-5.15;-17.11;-29.89;72.35;-78.37;1
-9.98;-5.26;-15.08;-72.16;24.52;-48.32;1
-8.52;-7.83;-10.01;-91.22;-55.2;-27.04;1
-5.69;-14.84;-5.02;-73.75;-106.09;-25.87;1
-1.03;-16.54;-1.62;-14.4;-84.16;-39.25;1
1.87;-10.12;-4.96;31.61;-34.54;-49.26;1
-0.94;-5.45;-12.09;10.23;-2.41;-46.84;1
-2.95;-5.22;-11.94;-16.47;7.7;-28.21;1
-1.04;-7.52;-8.93;-12.98;-6.65;-13.53;1
2.11;-9.37;-8.51;-1.3;4.9;-18.83;1
3.42;-10.97;-10.58;16.94;28.92;-34.85;1
1.79;-10.26;-13.96;20.48;37.78;-47.4;1
-1.46;-8.43;-15.56;2.11;28.99;-47.33;1
-3.95;-8.66;-13.98;-15.4;3.93;-41.59;1
-5.61;-9.69;-12.15;-15.15;-18.13;-37.46;1
-5.24;-8.96;-11.64;-11.07;-42.78;-34.33;1
-2.97;-8.31;-11.88;-9.95;-63.94;-35.04;1
-1.13;-8.79;-11.7;-11.93;-63.52;-38.42;1
-0.27;-10.01;-11.31;-14.12;-58.26;-41.07;1
0.68;-10.86;-10.81;-14.88;-50.68;-42.52;1
1.89;-11.32;-10.63;-13.91;-41.62;-47.43;1
2.27;-11.41;-10.82;-11.55;-22.42;-54.37;1
1.85;-11.53;-10.71;-8.64;-7.7;-60.46;1
1.22;-11.71;-10.77;-8.28;-0.69;-64.88;1
0.3;-11.75;-10.42;-7.27;-0.65;-67.38;1
-0.37;-11.38;-10.3;-5.14;-3.85;-68.71;1
-0.32;-11.01;-10.67;-5.43;-10.88;-70.22;1
-0.35;-11.06;-10.83;-5.97;-13.42;-72.51;1
-0.09;-11.1;-10.88;-6.52;-12.84;-75.68;1
-0.22;-11.47;-10.92;-6.73;-12.07;-78.34;1
-0.64;-11.52;-10.83;-6.69;-11.91;-79.57;1
-1.36;-11.47;-10.78;-6.51;-15.1;-80.08;1
-1.86;-11.14;-10.76;-7.34;-19.7;-78.52;1
-1.92;-10.89;-10.86;-7.96;-22.84;-76.97;1
-2;-10.95;-11.15;-8.79;-24.98;-75.63;1
-2.09;-10.53;-11.03;-10.18;-24.24;-72.79;1
-2.41;-10.45;-11.46;-10.37;-25.18;-69.02;1
-2.69;-10.3;-11.55;-12.86;-18.3;-66.59;1
-2.84;-10.15;-11.17;-13.42;-11.33;-66.21;1
-2.8;-9.77;-11;-12.08;-7.62;-63.2;1
-3.44;-8.99;-10.63;-9.71;-1.89;-59.27;1
-4.66;-8.47;-10.34;-4.48;4.5;-50.51;1
-5.34;-7.86;-9.48;2.92;10.1;-38.26;1
-5.8;-7.59;-9.15;13.14;9.1;-23.11;1
-5.47;-7.64;-9.18;24.23;7.02;-8.53;1
-4.98;-7.53;-9.21;38.42;10.22;4.42;1
-4.94;-7.46;-8.88;51.76;17.48;18.7;1
-5.5;-7.82;-9.2;59.09;27.63;40.31;1
-6.09;-8.4;-10.09;60.61;35.41;65.38;1
-5.6;-8.44;-10.16;58.35;35.38;90.42;1
-4.27;-8.45;-11.02;55.65;27.14;108.86;1
-3.1;-9.12;-11.3;51.2;23.71;123.34;1
-2.69;-9.89;-11.26;46.19;29.75;136.47;1
-2.01;-10.52;-11.82;39.63;41.99;144.47;1
-1.06;-11.64;-12.06;28.82;54;145.09;1
-0.24;-12.11;-11.73;15.26;57.64;140.89;1
-0.2;-12.22;-10.72;8.18;56.21;137.73;1
-0.24;-12.01;-10.22;4.24;50.41;135.6;1
-0.66;-11.92;-10.52;-0.15;33.5;138.5;1
-1.27;-12.01;-10.37;-4.48;16.41;140.72;1
-1.91;-12.36;-9.85;-6.09;1.12;142.99;1
-2.47;-12.62;-9.5;-4.3;-14.61;144.47;1
-2.91;-12.73;-9.57;-2.32;-25.55;144.58;1
-2.79;-12.42;-9.47;-1.47;-29.3;142.7;1
-2.05;-12.07;-9.43;-2.34;-28.37;141.98;1
-1.12;-11.89;-9.55;-2.89;-26.61;140.74;1
-0.44;-11.88;-9.79;-3.34;-23.07;136.09;1
-0.28;-11.66;-9.94;-3.73;-13.55;128.63;1
-0.29;-11.16;-10.04;-4.73;0.56;119.94;1
-0.18;-10.58;-9.77;-5.42;10.21;110.45;1
-0.32;-10.08;-9.34;-2.92;7.7;100.81;1
-0.17;-9.47;-9.4;2.15;5.54;89.78;1
-0.02;-8.82;-9.32;6.37;5.93;77.26;1
-0.29;-8.3;-8.97;9.06;4.51;63;1
-0.75;-7.83;-8.89;9.46;2.94;49.94;1
-1;-7.37;-9.23;8.12;4.29;38.87;1
-1.1;-6.94;-9.35;7.55;4.19;27.15;1
-1.31;-6.59;-9.41;7.67;2.22;14.95;1
-1.53;-6.06;-9.81;7.08;3.7;3.93;1
-1.86;-5.72;-10.16;5.05;11.38;-6.78;1
-2.46;-5.82;-9.53;3.69;13.26;-18;1
-3.31;-5.63;-9.73;3.24;12.86;-28.27;1
-4.1;-5.84;-10.07;4.47;22.29;-36.87;1
-4.79;-5.95;-10.44;1.22;34.09;-40.67;1
-5.18;-6.18;-10.83;-5.31;37.35;-43.19;1
-5.99;-5.8;-11.27;-11.99;38.7;-49.73;1
-7.21;-5.61;-11.55;-18.23;50.42;-55.77;1
-8.19;-5.84;-11.65;-24.3;60.19;-59.23;1
-7.89;-5.95;-11.85;-33.27;62.86;-59.56;1
-6.25;-5.79;-11.43;-42.18;52.89;-57.17;1
-3.39;-5.7;-9.39;-43.29;25.09;-59.45;1
-1.38;-6.66;-7.47;-32.9;-1.07;-67.87;1
-1.36;-8.6;-5.81;-11.31;-18.94;-80.01;1
-4.78;-13.17;-8.38;-8.58;-11.42;-96.29;1
-12.26;-18.15;-14.54;-22.77;4.09;-75.21;1
-11.48;-14.13;-13;-32.64;-30.09;-12.43;1
-1.74;-8.49;-7.13;-18.66;-52.39;14.77;1
5.38;-7.07;-8.36;1.91;-46.71;-2.21;1
7.96;-6.79;-10.96;6.5;-12.35;-35.68;1
6.11;-6.96;-11.94;-1.66;21.51;-67.59;1
0.98;-9.76;-11.7;-6.38;36.47;-86.59;1
-3.67;-12.73;-11.33;-3.83;34.9;-86.75;1
-5.78;-12.84;-11.87;3.91;9.38;-72.22;1
-5.22;-9.85;-13.36;1.82;-19.17;-56.28;1
-3.95;-8.76;-13.62;-12.18;-27.4;-48.93;1
-1.81;-9.33;-12.56;-20.53;-29.2;-53.11;1
-0.55;-9.93;-10.95;-21.55;-25.17;-61.69;1
0.7;-10.72;-10.21;-16.99;-16.82;-69.23;1
0.99;-11.87;-10.67;-11.84;-6.2;-76.91;1
-0.49;-12.38;-10.98;-7.84;-6.33;-85.41;1
-1.38;-11.85;-10.68;-4.47;-10.84;-86;1
-1.13;-11.36;-10.42;-0.78;-14.6;-83.63;1
-0.23;-11.49;-10.61;1.07;-13.04;-85.93;1
-0.13;-11.89;-10.46;2.12;-12.72;-90.25;1
-0.15;-11.56;-10.25;4.91;-12.16;-92.8;1
-0.22;-11.22;-10.74;4.26;-5.13;-93.31;1
-0.34;-11.27;-11.35;1.61;4.32;-94.88;1
-0.65;-11.25;-11.13;-1.26;10.58;-95.32;1
-1.13;-11.23;-11.01;-1.62;11.69;-95.69;1
-1.64;-11.14;-10.99;-2.53;6.85;-95.04;1
-1.66;-10.93;-10.74;-4.57;-0.26;-94.01;1
-1.93;-10.77;-10.74;-3.71;-7.45;-93.31;1
-2.13;-10.42;-10.89;-4.21;-13.18;-94.22;1
-2.4;-10.69;-10.77;-5.62;-17.42;-94.85;1
-2.09;-11;-10.64;-5.6;-17.04;-92.33;1
-1.35;-10.66;-11.29;-4.11;-16.94;-90.95;1
-0.82;-10.67;-11.9;-4.16;-3.12;-94.29;1
-1.8;-10.79;-11.81;-4.75;14.71;-99.26;1
-2.58;-10.47;-10.91;-4.98;34.59;-97.17;1
-3.58;-9.93;-10.54;-1.61;47.51;-91.54;1
-4.65;-8.65;-9.93;2.24;60.29;-83.9;1
-6.2;-7.24;-9.14;14;69.59;-68.54;1
-6.96;-5.92;-9.76;29.77;69.47;-47.17;1
-6.6;-5.49;-10.53;41.47;62.94;-23.63;1
-5.48;-5.96;-10.52;52.93;57.91;-3.25;1
-4.76;-6.69;-10.9;60.6;52.7;11.25;1
-4.85;-8.37;-11.05;60.42;51.45;27.01;1
-5.62;-9.98;-11.02;59.76;54.51;43.21;1
-6.44;-9.68;-10.88;58.71;50.54;60.56;1
-6.29;-9.07;-11.33;50.58;36.58;83.55;1
-4.85;-8.34;-12.2;34.52;0.06;102.47;1
-3.77;-8.18;-13.48;12.79;-46.04;113.06;1
-2.64;-8.92;-12.54;-6.71;-77.87;119.18;1
-2.07;-11.05;-10.92;-15.31;-87.5;125.89;1
-1.81;-12.39;-10.43;-13.66;-76.5;131.16;1
-1.22;-12.33;-10.15;-11.05;-53.2;135.09;1
-0.67;-12.45;-9.84;-10.17;-32.46;141.31;1
0.11;-13.11;-9.28;-6.41;-13.94;147.92;1
0.68;-13.46;-8.83;0.64;-1.25;155.22;1
1.02;-13.12;-9.06;7.05;5.25;159.28;1
0.9;-12.69;-9.91;8.02;9.56;163.02;1
0.59;-12.17;-10.35;4.13;12.91;166.5;1
-0.1;-11.76;-10.16;-1.08;17.37;168.87;1
-0.82;-11.88;-9.66;-4.72;21.9;170.29;1
-1.24;-12.19;-9.24;-6.42;25.53;173.25;1
-1.75;-12.25;-9.01;-6.46;28.06;173.36;1
-1.56;-12.17;-8.95;-3.29;29.04;173.34;1
-2.31;-11.95;-9.26;1.98;19.41;171.4;1
-2.72;-11.46;-9.79;6.34;6.51;166.25;1
-2.85;-10.42;-10.25;8.47;-3.49;158.76;1
-3.61;-9.28;-10.47;8.11;-21.69;150.5;1
-3.16;-8.54;-10.62;4.87;-35.33;141.81;1
-2.86;-8.08;-9.85;1.89;-45.45;128.6;1
-2.23;-7.81;-9.07;1.18;-49.78;116.84;1
-1.64;-7.75;-8.59;2.36;-47.71;104.46;1
-1.24;-7.83;-8.49;4.53;-48.65;93.79;1
-0.38;-7.32;-8.64;6.97;-48.14;82.98;1
0.16;-6.95;-9.11;8.77;-48.33;67.81;1
0.23;-6.6;-9.19;9.95;-49.41;51.62;1
-0.25;-6.42;-9.43;10.37;-53.7;34.12;1
-0.99;-5.73;-9.96;6.8;-59.45;15.54;1
-1.64;-5.22;-10.23;2.18;-58.57;-0.77;1
-1.79;-4.62;-10.59;-4.47;-52.72;-14.58;1
-1.17;-4.28;-10.33;-11.66;-39.76;-28.44;1
-0.43;-4.21;-10.16;-17.2;-18.49;-45.16;1
-0.18;-4.47;-10.06;-24.85;6.04;-64.66;1
-0.71;-4.6;-10.21;-37.6;32.03;-84.18;1
-1.66;-5.42;-10.29;-49.76;54.34;-104.14;1
-2.61;-6.59;-10.5;-57.07;64.54;-126.2;1
-3.31;-8.16;-10.1;-62.54;62.89;-144.29;1
-3.07;-9.72;-9.21;-62.49;57.32;-158.37;1
-2.08;-9.95;-8.43;-54.39;63.52;-162.91;1
-2.41;-9.34;-5.42;-42.67;89.3;-150.78;1
-10.16;-12.09;-1.11;9.65;120.08;-116.4;1
-19.7;-10.76;-21.99;-26.4;99.01;-68.77;1
-15.31;-15.09;-16.7;-109.54;-0.12;-7.14;1
1.51;-16.62;0.73;-38.93;-77.55;-2.94;1
8.49;-12;-5.83;24.63;-67.01;-30.56;1
8.59;-5.66;-15.52;11.75;-33.09;-51.92;1
7.05;-4.22;-15.62;-35.28;20.47;-80.33;1
4.42;-9.04;-11.14;-37.44;34.77;-115.21;1
-3.26;-14.87;-11.45;-24.57;15.59;-134.45;1
-8.3;-17.46;-10.58;-22.87;-29.41;-122.75;1
-7.14;-13.61;-8.91;-1.24;-58.45;-82.14;1
-2.78;-10.28;-11.99;-1.73;-64.56;-59.86;1
1.24;-9.83;-12.39;-16.81;-39.59;-60.41;1
4.47;-10.66;-10.14;-16.78;-16.16;-74.43;1
5.38;-11.81;-10.58;-6.74;5.78;-92.94;1
3.76;-12.61;-12.16;-5.79;21.93;-110.28;1
1;-13.05;-12.23;-8.09;31.55;-120.75;1
-1.49;-12.78;-11.64;-8.79;29.71;-121.68;1
-3.4;-11.99;-11;-7.04;19.38;-113.79;1
-4.56;-11.54;-10.95;-5.96;3.76;-102.69;1
-4.71;-11.54;-10.74;-5.02;-5.5;-91.82;1
-3.5;-11.68;-10.35;-2.58;-14.57;-85.56;1
-1.88;-11.79;-10.53;-0.82;-20.19;-84.52;1
-0.59;-11.85;-10.43;-1.06;-15.1;-85.82;1
0.24;-11.58;-10.64;-2.7;-9.81;-88.92;1
0.39;-11.61;-10.81;-4.95;-1.63;-90.98;1
0.14;-11.86;-11.2;-5.76;1.91;-93.56;1
-0.62;-11.86;-11.55;-7.05;4.4;-94.75;1
-2;-11.94;-12.15;-8.68;7.13;-95.53;1
-3.5;-11.69;-11.69;-14.28;13.46;-89.76;1
-3.47;-11.17;-10.87;-14.81;16.08;-80.43;1
-2.35;-10.57;-10.06;-11.77;32.79;-73.14;1
-1.45;-9.81;-9.44;-6.86;52.25;-72.21;1
-1.83;-9.28;-9.23;0.92;68.92;-73.79;1
-2.78;-8.1;-9.56;13.41;83.03;-71.88;1
-3.54;-6.86;-9.84;27.36;100.29;-65.27;1
-4.7;-5.89;-10.39;41.99;107.48;-56.99;1
-5.77;-5.28;-12.19;49.3;100.6;-43.98;1
-6.11;-4.82;-12.96;43.57;85.77;-28.13;1
-6.7;-5.42;-12.01;42.82;71.91;-14.87;1
-7.57;-8;-11.84;43.96;49.33;8.7;1
-7.89;-9.56;-12.01;39.55;13.61;33.15;1
-7.91;-9.49;-11.79;29.79;-19.23;53.76;1
-7.25;-9.1;-11.11;16.27;-38.17;74.77;1
-5.47;-8.28;-11.36;4.92;-65.89;94.86;1
-4.51;-8.26;-12.65;-6.06;-101.39;110.28;1
-3.47;-10.02;-11.77;-14.9;-102.23;127.78;1
-2.78;-12.07;-10.55;-13.47;-79.74;145.96;1
-2.15;-13.28;-9.81;-4.24;-54.86;160.21;1
-1.06;-14.09;-9.57;0.22;-24.14;172.73;1
0.03;-14.65;-8.83;6.71;7.45;181.68;1
1.72;-14.22;-9.41;12.15;23.12;184.31;1
2.57;-13.52;-9.74;12.71;31.95;183.52;1
2.34;-12.95;-10.05;12.17;38.83;180.8;1
1.57;-12.15;-10.32;8.34;39.8;178.21;1
0.73;-11.69;-10.39;1.57;37.34;179.08;1
-0.77;-11.84;-10.14;-3.47;28.23;180.67;1
-0.26;-12.26;-10.27;-7.61;24.83;183.65;1
-1.36;-12.32;-10.02;-8.72;14.06;181.53;1
-1.47;-12.47;-9.52;-2.85;4.02;178.92;1
-0.8;-12.41;-9.03;6.89;-6.49;171.43;1
0.05;-11.74;-9.5;17.82;-11.88;161.31;1
0.53;-10.46;-10.28;22.39;-8.91;147.78;1
1.01;-8.94;-10.67;18.61;-4.53;133.34;1
1.57;-7.91;-9.97;13.34;-6.58;115.3;1
1.69;-7.16;-9.5;10.82;-13.46;92.65;1
1.72;-6.77;-9.15;9.3;-21.97;70.24;1
1.66;-6.55;-9.62;7.84;-27.7;45.41;1
1.21;-5.95;-10.37;2.08;-25.28;20.02;1
1.21;-5.06;-11.26;-6.76;-13.82;-6.66;1
0.63;-4.49;-10.93;-12.97;-0.36;-31.09;1
0.04;-4.82;-9.45;-13.36;10.77;-51.34;1
0.02;-5.72;-9.06;-10.05;30.4;-71.08;1
-0.82;-6.5;-9.26;-3.86;60.95;-92.8;1
-2.73;-7.4;-9.82;4.4;84.81;-114.43;1
-5.4;-8.24;-10.85;11.01;91.22;-128.74;1
-7.94;-9.38;-12.17;17.25;95.46;-132.88;1
-10.16;-9.29;-13.24;11.82;89.14;-125.76;1
-11.84;-8.16;-14.12;-11.21;73.14;-106.69;1
-12.95;-6.28;-12.22;-44.06;40.52;-73.19;1
-12.58;-4.79;-8.55;-56.4;-1.09;-36.82;1
-10.57;-2.86;-8.76;-51.57;-74.93;-13.46;1
-6.03;-1.28;-11.2;-61.04;-166.27;-14.12;1
0.31;-5.2;-9.5;-78.66;-160.88;-27.87;1
6.45;-19.55;0.81;-41.89;-26.88;-47.88;1
7.22;-19.55;-5.31;50.32;-20.05;-51.24;1
-5.53;-8.89;-26.09;-3.7;-22.62;-27.69;1
-12.93;-8.26;-17.31;-91.15;10.03;29.2;1
-1.43;-10.49;-2.2;-37.11;-9.55;44.47;1
10.94;-8.84;-4.63;12.73;-10.88;5.97;1
13.53;-8.44;-11.71;23.57;21.75;-41.43;1
7.57;-9.86;-15.08;6.97;57.64;-81.17;1
0.25;-13.23;-14.03;-7.92;49.9;-99.9;1
-4.27;-13.59;-11.2;-0.48;25.94;-103.6;1
-6.85;-11.62;-11.57;6.61;-14.69;-94.84;1
-6.92;-10.06;-12.98;-0.5;-61.39;-80.92;1
-3.81;-9.5;-11.83;-8.08;-75.12;-70.29;1
1.83;-9.64;-10.46;-2.6;-57.24;-73.47;1
5;-10.29;-11.47;-0.18;-20.65;-84.06;1
4.99;-11.45;-12.13;-1.06;9.68;-96.36;1
3.3;-11.71;-12.39;-1.71;31.19;-105.51;1
0.88;-11.16;-12.49;-4.47;47.01;-110.21;1
-0.68;-10.52;-11.98;-6.15;46.95;-108.52;1
-2.13;-10.38;-10.71;-7.14;36.09;-104.13;1
-2.34;-10.99;-10.4;-3.33;23.88;-101.78;1
-1.73;-11.13;-11.02;-2.82;17.16;-102.79;1
-0.86;-11.52;-11.26;-5.35;13.62;-107.56;1
-0.78;-11.71;-11.36;-6.11;17.02;-111.75;1
-1.59;-11.85;-11.14;-6.77;16.32;-112.05;1
-3.22;-11.55;-10.99;-6.57;11.88;-109.42;1
-3.63;-10.19;-10.58;-7.08;16.62;-106.49;1
-2.48;-9.52;-10.55;-6.27;36.29;-104.3;1
-1.39;-9.27;-10.58;-4.42;60.12;-102.85;1
-2.41;-9.36;-10.6;0.82;84.96;-98.15;1
-5.16;-9.41;-10.53;17.66;116.36;-88.48;1
-8.84;-8.07;-11.08;38.82;124.57;-72.69;1
-11.24;-6;-11.86;49.66;95.58;-45.66;1
-10.9;-4.99;-11.12;51.59;57.37;-15.56;1
-9.16;-5.71;-10.14;52.42;31.04;10.44;1
-7.2;-6.15;-10.8;53.85;12.05;28.88;1
-6.23;-6.99;-11.87;58.08;13.91;41.79;1
-5.99;-8.91;-11.32;62.89;35.59;59.44;1
-6.24;-10.44;-10.46;69.57;53.58;77.41;1
-6.86;-9.91;-10.75;70.41;50.77;94;1
-7.15;-9.15;-12.26;59.92;33.51;115.86;1
-6.75;-9.63;-14.39;42.67;-1.81;146.84;1
-5.3;-9.89;-14.82;18.67;-32.27;167.1;1
-4.38;-11.35;-14.88;-10.52;-65.96;178.02;1
-3.48;-13.59;-14.79;-39.48;-89.84;178.1;1
-2.66;-15.14;-13.36;-63.82;-101.76;172.95;1
-1.05;-15.03;-11.07;-73;-102.75;164.92;1
-0.42;-15.44;-7.98;-62.42;-74.32;163.54;1
-0.2;-16.02;-7.78;-36.45;-45.88;170.45;1
0.38;-14.98;-9.48;-25.99;-52.17;175.57;1
0.33;-13.37;-9.97;-26.28;-57.88;178.57;1
0.03;-12.36;-9.63;-28.16;-64.97;182.49;1
-0.51;-11.69;-9.23;-31.31;-75.01;186.29;1
0.25;-11.62;-8.77;-28.15;-73.61;186.57;1
-0.11;-11.85;-8.7;-22.37;-64.97;183.7;1
0.17;-11.78;-8.49;-13.45;-53.91;176.35;1
0.03;-11.56;-8.52;-4.69;-43.88;166.96;1
0.51;-11.2;-9.05;1.34;-32.89;156.12;1
0.99;-10.72;-9.83;4.17;-20.01;145.75;1
1.15;-10.19;-10.44;4.63;-8.63;133.34;1
1.7;-9.58;-10.7;2.24;5.77;115.88;1
1.72;-9.11;-10.11;-0.18;10.75;96.05;1
1.76;-8.28;-9.03;0.65;10.41;76.46;1
1.32;-7.26;-8.2;2.28;4.25;53.5;1
0.63;-6.12;-7.96;1.75;-5.32;29.58;1
-0.11;-5.29;-8.24;-3.3;-16.84;4.71;1
-0.39;-4.8;-8.85;-12.3;-20.91;-20.56;1
-1.09;-4.38;-8.46;-18.28;-21.15;-41.32;1
-1.8;-5.16;-7.63;-14.91;-19.81;-59.96;1
-2.8;-5.89;-7.62;-5.83;-9.63;-71.47;1
-2.96;-6.69;-8.26;7.01;22.62;-83.82;1
-3.62;-7.26;-9.48;17.44;54.8;-96.32;1
-4.24;-7.75;-10.61;22.69;69.69;-110.09;1
-5.79;-9.19;-12.2;25.92;96.42;-119.24;1
-7.6;-10.36;-14.9;27.03;126.65;-117.19;1
-9.11;-8.87;-17.56;8.27;152.21;-98.02;1
-8.88;-4.91;-16.84;-30.71;156.54;-69.69;1
-6.87;-1.78;-13.75;-70.17;105.38;-54.82;1
-4.28;-0.96;-9.77;-93.35;-3.64;-58.73;1
-2.71;-2.73;-4.97;-88.97;-117.23;-74.37;1
-3.71;-11.86;-1.23;-49.42;-127.53;-90.46;1
-11.78;-19.55;-4.04;6.16;-46.77;-76.79;1
-18.16;-18.15;-16.19;21.41;-62.17;3.57;1
-8.26;-5.69;-16.8;-66.12;-49.13;70.64;1
4.77;-9.28;-3.63;-31.48;-61.87;66.6;1
14.73;-8.37;-6.52;20.85;-15.48;17.85;1
16.87;-6.99;-11.83;24.3;41.35;-31.4;1
10.86;-6.68;-14.85;3.61;83.19;-73.04;1
0.87;-9.39;-14.28;-13.2;97.05;-97.82;1
-7.66;-13.05;-10.95;-9.29;67.11;-107.88;1
-11.52;-12.93;-9.61;14.73;11.72;-92.05;1
-10;-9.63;-12.84;16.72;-43.8;-63.66;1
-6.18;-9.58;-13.61;-0.11;-70.86;-47.9;1
-0.75;-10.39;-11.49;-0.34;-70.96;-52.43;1
2.69;-9.65;-11.17;6.53;-56.52;-68.63;1
4.17;-9.87;-13.15;2.97;-37.49;-84.77;1
3.35;-11.39;-13.93;-7.7;-24.28;-100.32;1
0.6;-12.47;-13.25;-20.14;-13.46;-107.11;1
-0.92;-11.85;-11.13;-18.63;-7.87;-108.97;1
-2.84;-11.16;-10.32;-15.2;-1.54;-104.57;1
-3.64;-10.75;-10.18;-14.91;-1.71;-97.11;1
-3.59;-11.41;-9.53;-9.59;-1.61;-89.51;1
-2.68;-11.97;-9.97;-2.28;-4.44;-86.85;1
-1.84;-11.68;-10.22;-4.7;-10.84;-88.64;1
-1.69;-11.85;-9.76;-3.82;-13.03;-92.34;1
-2.38;-11.76;-10.08;-0.12;-14.29;-93.37;1
-3.21;-10.83;-10.61;0.5;-19.03;-92.66;1
-3.89;-10.44;-10.5;1.08;-20.48;-88.12;1
-4.3;-10.39;-10.97;3.4;-13.88;-83.63;1
-4.22;-9.98;-11.38;1.48;-6.4;-78.17;1
-4.29;-9.74;-11.19;-0.35;3.83;-74.85;1
-4.7;-8.93;-10.21;0.43;22.75;-73.01;1
-5.17;-7.91;-9.94;3.39;44.09;-69.13;1
-5.17;-6.15;-9.57;10.63;59.81;-63.82;1
-5.8;-4.63;-8.96;21.66;65.54;-55.29;1
-6.75;-3.87;-8.72;33.77;64.68;-38.24;1
-6.96;-4.18;-9.77;43.94;56.19;-15.7;1
-7.1;-5.4;-11.5;46.73;40.37;4.08;1
-7.9;-7.64;-11.69;49.4;30.18;19.41;1
-9.43;-9.7;-12.23;51.43;6.55;38.93;1
-9.78;-10.18;-12.63;49.27;-25.72;62.81;1
-8.73;-9.51;-13.61;35.66;-46.23;89.89;1
-6.77;-9.17;-13.11;17.08;-69.66;116.4;1
-4.38;-9.8;-11.61;4.81;-76.07;140.29;1
-1.78;-10.28;-11.23;2.29;-56.26;153.53;1
-0.69;-11.1;-10.96;0.43;-18.05;159.19;1
-0.82;-13.41;-10.42;2;13.58;163.65;1
-1.21;-16.28;-10.87;1.72;35.12;168.31;1
-1.11;-15.44;-10.77;2.76;39.56;166.96;1
-1.78;-13.52;-10.56;0.82;40.18;164.44;1
-2.51;-12.55;-9.99;-5.94;27.24;165.15;1
-2.74;-11.88;-9.31;-9.57;0.9;167.49;1
-2.94;-11.57;-8.86;-8.08;-24.99;171.12;1
-3.34;-11.65;-8.49;-3.27;-42.98;176.83;1
-2.94;-12.21;-8.78;1.08;-49.09;177.46;1
-2.23;-12.85;-8.75;5.56;-48.84;172.96;1
-0.63;-13.28;-9.13;10.45;-38.66;164.44;1
0.32;-13.2;-9.46;13.48;-27.17;151.39;1
0.58;-12.81;-9.94;12.59;-18.54;137.52;1
0.5;-12.27;-10.35;9.86;-11.88;126.18;1
0.15;-11.61;-10.74;7.6;-11.59;115.76;1
-0.09;-10.84;-10.44;7.18;-15.52;103.58;1
0.13;-10.05;-9.89;10.4;-13.48;89.17;1
0.48;-9.22;-9.87;11.6;-4.74;72.46;1
0.87;-8.27;-9.23;9.05;0.52;53.55;1
0.94;-7.38;-8.25;9.25;4.09;34.05;1
1.12;-6.44;-8.66;7.78;9.32;14.96;1
1.18;-5.55;-9.29;-0.44;12.38;-6.21;1
0.48;-4.98;-9.06;-10.48;8.53;-31.06;1
-0.13;-4.76;-8.37;-13.09;1.45;-53.36;1
-0.46;-5.59;-7.93;-9.03;4.89;-74.65;1
-1.29;-5.97;-8.66;-4.13;23.53;-91.63;1
-2.55;-6.96;-8.34;5.05;51.66;-105.95;1
-5.15;-7.86;-9.43;22.24;86.96;-118.79;1
-6.93;-7.9;-12.12;41.21;136.87;-122.45;1
-7.18;-7;-15.56;44.5;164.71;-115;1
-7.02;-4.87;-18.58;16.88;164.53;-97.46;1
-7.09;-2.08;-19.62;-41.87;136.65;-71.48;1
-6.53;-0.91;-16.61;-93.07;73.53;-57.21;1
-5.35;-1.81;-9.34;-108.48;-20.97;-62.78;1
-4.39;-8.69;1.61;-62.21;-79.64;-77.27;1
-9.17;-19.55;-1.39;1.5;-47.94;-90.25;1
-18.37;-19.55;-12.69;30.81;-32.32;-45.17;1
-14.71;-9.11;-19.13;-17.58;-66.46;40.64;1
-0.94;-7.3;-9.85;-48.22;-82.08;61.57;1
10.28;-9.15;-4.26;1.43;-62.26;29.01;1
15.89;-7.15;-8.7;24.44;7.85;-16.14;1
13.44;-6.04;-12.15;12.17;59.99;-61.46;1
4.92;-7.85;-13.21;-3.56;94.01;-97.78;1
-4.73;-12.58;-11.83;-5.99;82.77;-113.69;1
-9.29;-14.79;-9.89;8.22;29.45;-108.85;1
-9.85;-11.34;-11.34;24.11;-19.01;-86.43;1
-8.8;-8.91;-14.41;10.66;-43.97;-64.36;1
-4.01;-9.1;-12.81;-4.92;-51.55;-51.14;1
1.04;-9.27;-11.11;-1.42;-50.22;-59.57;1
3.8;-9.35;-12.01;3.11;-31.47;-75.18;1
3.52;-10.25;-13.46;-1.3;-17.8;-93.59;1
1.55;-11.35;-13.35;-10.73;-5.01;-109.4;1
-0.76;-11.78;-11.91;-13.47;-3.48;-114.17;1
-2.14;-11.35;-11.32;-11.61;-6.87;-115.05;1
-3.09;-11.11;-11.33;-12.95;-11.25;-112.02;1
-3.21;-11.29;-10.98;-14.12;-21.52;-107.26;1
-2.05;-11.52;-10.74;-14.09;-30.88;-105.45;1
-0.68;-11.96;-10.36;-15.42;-31.73;-108.3;1
-0.5;-12.45;-10.46;-13.67;-25.63;-111.72;1
-1.17;-12.12;-10.37;-15.6;-17.26;-110.64;1
-1.79;-12.13;-10.36;-14.65;-14.32;-108.85;1
-2.76;-11.88;-10.31;-11.6;-14.85;-106.25;1
-2.64;-11.39;-10.32;-8.15;-9.32;-101;1
-2.01;-10.7;-10.73;-2.5;0.49;-98.75;1
-2.18;-10.7;-11.87;-2.1;14.07;-97.09;1
-2.66;-10.48;-10.8;-5.79;41.83;-95.74;1
-3.96;-10.04;-9.46;-1.28;64.99;-96.68;1
-6.06;-8.47;-8.94;7.09;84.17;-94.93;1
-7.3;-6.57;-9.77;18.31;88.54;-82.24;1
-7.47;-5.03;-10.33;28.75;82.16;-61.28;1
-7.84;-4.85;-9.06;41.11;71;-37.28;1
-8.29;-5.08;-8.78;56.53;55.58;-13.74;1
-9.14;-5.94;-10.05;63.13;42.85;12.34;1
-9.76;-7.62;-11.04;63.04;36.53;39.9;1
-10.13;-9.16;-12.27;58.66;26.24;65.25;1
-9.96;-9.8;-13.65;51.08;-13.55;89.56;1
-7.82;-9.65;-14.11;38.06;-51.05;115.99;1
-5.17;-9.4;-13.5;18.78;-67.94;134.92;1
-3.24;-10.38;-12.54;4.09;-80.05;151.23;1
-1.63;-11.24;-12.45;-6.49;-76.4;160.8;1
-0.7;-12.74;-12.1;-16.08;-62.84;165.79;1
-0.25;-14.56;-10.76;-17.86;-42.26;167.82;1
0.14;-16.19;-9.12;-11.18;-10.04;168.82;1
0.36;-16.51;-8.88;1.1;7.96;168.67;1
0.63;-15.23;-9.91;4.37;2.9;166.83;1
0.29;-13.92;-10.16;1.14;-0.67;165.58;1
0.02;-13.14;-10.16;-2.88;-8.08;164.76;1
-0.11;-12.55;-10;-5.11;-24;166.06;1
-0.17;-12.56;-9.79;-4.46;-34.62;167.35;1
-0.92;-12.77;-9.68;-3.11;-34.55;165.8;1
-0.15;-12.87;-9.67;-2.41;-23.4;163.51;1
0.74;-12.88;-9.91;-3.52;-7.84;157.61;1
1.16;-12.28;-10.04;-4.35;-3.24;149.08;1
1.7;-11.27;-10.01;-4.62;0.21;139.05;1
2.35;-10.46;-9.89;-3.83;7.56;126.63;1
2.69;-9.61;-10.03;-3.05;16.6;109.18;1
2.54;-8.56;-9.93;-3.09;19.42;88.33;1
2.49;-7.61;-9.03;-0.68;11.74;65.96;1
2.9;-6.63;-8.3;6;5.42;42.56;1
2.04;-5.54;-8.54;10.66;-0.51;18.83;1
1.71;-4.51;-9.46;7.82;0.24;-4.01;1
1.68;-3.85;-9.73;-1.71;5.27;-26.91;1
1.13;-3.7;-8.89;-9.6;4.11;-49.4;1
0.49;-4.61;-7.9;-9.56;-1.36;-68.44;1
-0.46;-5.36;-7.6;-2.42;1.19;-87.09;1
-1.47;-6.48;-7.92;8.09;12.86;-106.81;1
-2.66;-7.93;-8.06;17.88;25.82;-125.63;1
-4.75;-9.05;-9.11;33.66;54.43;-141.11;1
-7.42;-9.8;-10.56;61.3;91.87;-148.08;1
-10.54;-9.71;-17.27;63.84;117.98;-142.39;1
-15.38;-8.14;-22.37;0.77;112.46;-107.56;1
-19.64;-7.36;-17.68;-74.09;103.09;-36.82;1
-18.73;-7.25;-10.13;-95.18;82.16;19.42;1
-13.39;-5.74;-8.07;-82.19;18.41;34.85;1
-4.26;-4.86;-6.77;-85.7;-101.84;23.68;1
5.24;-14.04;-5.22;-70.66;-174.65;-12.35;1
9.48;-19.55;-0.56;-18.57;-121.26;-48.51;1
4.94;-15.23;-3.25;54.19;-40.3;-55.43;1
-6.89;-6.11;-28.71;-15.76;-69.11;-24.33;1
-10.65;-7.72;-17.43;-103.44;-11.26;38.66;1
4.78;-13.15;0.72;-29.7;-16.71;44.21;1
15.01;-11.44;-6.57;22.42;2.15;-8;1
13.63;-8.9;-12.94;16.99;62.3;-57.21;1
6.13;-8.65;-14.53;5.22;109.02;-86.72;1
-1.86;-10.01;-13.82;-1.42;104.64;-95.04;1
-7.66;-11.29;-11.97;-3.86;65.72;-92.33;1
-10.82;-10.89;-9.93;4.09;12.86;-77.67;1
-8.23;-8.46;-11.55;13.78;-49.35;-61.24;1
-2.94;-7.28;-13.09;4.89;-63.23;-55.73;1
0.42;-7.93;-12.05;-4.79;-52.69;-63.42;1
2.15;-8.69;-11.75;-3.47;-33.59;-77.15;1
1.89;-9.42;-12.18;-1.89;-21.69;-88.06;1
0.5;-9.68;-12.75;-5.48;-15.71;-94.13;1
-0.71;-9.71;-12.17;-12.28;-8.76;-96.74;1
-1.32;-9.85;-10.84;-13.38;-6.23;-97.2;1
-1.53;-9.72;-10.11;-11.07;-10.89;-96.47;1
-1.19;-10.09;-10.13;-8.54;-17.84;-98.33;1
-0.72;-10.47;-10.86;-9.28;-22.33;-101.51;1
-0.16;-10.87;-11.24;-11.57;-22.46;-107.12;1
-0.34;-11.25;-10.99;-14.84;-23.75;-111.13;1
-0.84;-11.88;-10.69;-17.63;-26.49;-110.15;1
-1.3;-11.82;-10.39;-16.93;-25.35;-107.99;1
-1.8;-12.02;-9.96;-16.44;-26.17;-104.88;1
-1.85;-12.3;-10.57;-14.4;-27.6;-102.27;1
-1.83;-12.83;-10.8;-13.44;-21.96;-99.67;1
-2.35;-12.59;-11.03;-11.38;-11.12;-95.3;1
-2.61;-11.93;-11.12;-9.94;7.36;-93.14;1
-2.83;-11.1;-10.61;-8.41;32.45;-95.5;1
-4.06;-10.06;-9.9;-3.79;57.71;-94.97;1
-7.82;-8.43;-10.14;7.02;68.65;-82.59;1
-10.06;-6.81;-9.78;18.75;66.58;-61.05;1
-10.84;-5.98;-9.33;36.35;52.15;-33.24;1
-9.8;-5.77;-9.57;50.7;30.45;-5.02;1
-7.92;-5.84;-10.01;60.25;12.26;18.41;1
-7.18;-6.96;-9.78;72.01;13.03;40.97;1
-7.31;-8.71;-10.94;76.81;18.77;65.52;1
-7.95;-9.63;-12.53;68.91;13.08;89.18;1
-7.58;-9.84;-12.62;57.37;-0.1;114.67;1
-6.25;-9.4;-13.52;42.43;-16.25;139.35;1
-4.33;-9.27;-12.22;27.24;-28.18;157.59;1
-2.55;-9.9;-11.71;15.76;-34.55;166.12;1
-1.55;-11.01;-11.76;5.4;-32.88;169.91;1
-1.7;-12.81;-10.48;-3.54;-9.46;173.21;1
-2.26;-15.7;-7.91;6.67;30.7;180.18;1
-1.46;-17.8;-9.1;20.5;33.66;187.6;1
-0.32;-15.88;-10.53;16.79;19.98;189.34;1
-0.44;-14.1;-10.62;4.62;23.51;189.31;1
-0.75;-13.56;-9.92;-4.81;14.8;194.32;1
-1.26;-13.42;-9.29;-5.77;-13.02;196.76;1
-1.63;-13.52;-9.16;-0.13;-24.2;196.54;1
-1.97;-13.36;-9.19;6.41;-23.25;195.64;1
-1.6;-12.93;-9.43;8.05;-23.71;193.67;1
-0.47;-12.54;-9.43;9.61;-23.46;187.02;1
0.05;-12.37;-9.34;11.65;-16.17;174.3;1
-0.08;-11.63;-9.5;12.47;-6.31;160.55;1
-0.72;-10.84;-9.72;10.6;-1.08;147.35;1
-0.9;-10.16;-9.91;7.26;-0.34;137.57;1
-0.51;-9.74;-9.99;5.18;-5.1;126.86;1
-0.22;-9.35;-9.87;5.79;-15.13;112.44;1
0.42;-8.74;-10.16;6.91;-19.61;95.35;1
0.9;-7.91;-10.3;6.11;-16.46;75.53;1
0.97;-6.98;-9.34;5.35;-17.2;54.79;1
0.91;-6.36;-9.18;4.66;-14.59;33.99;1
0.59;-4.97;-9.99;-0.01;-9.65;13.28;1
-0.02;-4.41;-10.13;-7.25;-15.4;-7.42;1
-0.27;-4.55;-9.44;-9.85;-23.64;-27.9;1
-0.79;-4.51;-9.16;-11.65;-19.49;-47.84;1
-1.41;-4.66;-9.53;-11.95;3.4;-63.68;1
-1.93;-5.15;-9.86;-11.89;35.87;-80.38;1
-3.27;-5.6;-10.24;-9.26;60;-96.31;1
-5.29;-6.14;-11.23;-3.8;72.56;-109.65;1
-7.22;-6.71;-13.66;-10.35;94.54;-116.33;1
-8.65;-6.82;-15.95;-27.79;113.93;-102.11;1
-6.64;-5.46;-14.1;-48.57;98.13;-75.87;1
-2.83;-4.09;-9.25;-67.5;64.58;-64.2;1
-0.39;-4.95;-1.36;-47.66;27.51;-73.53;1
-3.4;-9.55;-2.31;3.97;19.41;-90.46;1
-14.25;-16.24;-18.6;-7.1;40.25;-84.98;1
-19.7;-19.55;-19.43;-70.91;-22.97;-8.21;1
-5.6;-16.96;-0.42;-28.02;-62.8;41.46;1
7.05;-8.78;-5.47;28.06;-71.6;15.27;1
12.19;-5.11;-13.93;14.78;-33.35;-14.43;1
11.79;-4.51;-12.71;-12.66;14.92;-54.24;1
6.98;-7.63;-10.35;-12.84;58.25;-100.35;1
-1.38;-11.93;-12.22;-9.32;61.93;-125.89;1
-8.01;-15.62;-12.08;-9.2;23.07;-121.53;1
-8.7;-13.75;-10.01;8.66;-21.47;-94.17;1
-6.04;-9.89;-12.53;7.86;-35.16;-67.5;1
-2.74;-9.39;-13.52;-8.53;-27.81;-62.39;1
1.01;-10.03;-11.67;-12.87;-23.05;-70.11;1
3.05;-10.26;-11.27;-5.49;-12.24;-87.57;1
2.77;-10.27;-12.4;-5.48;1.81;-109.92;1
-0.25;-11.23;-12.31;-9.34;4.89;-122.53;1
-2.98;-12.01;-11.96;-12.5;2.12;-127.55;1
-4;-11.88;-10.79;-9.76;-7.78;-121.4;1
-3.24;-11.26;-10.48;-6.43;-16.7;-114.59;1
-2.4;-11.48;-11.09;-6.32;-20.77;-112.33;1
-1.64;-11.97;-11.15;-9.41;-18.88;-113.75;1
-1.54;-12.62;-10.58;-10.83;-17.3;-115.57;1
-1.66;-12.34;-10.25;-9.52;-16.89;-116.59;1
-2.25;-11.87;-10.01;-10.95;-16.92;-116.21;1
-2.99;-11.84;-10.11;-8.55;-19.01;-113.5;1
-3.72;-11.25;-10.46;-6.26;-26.53;-109.52;1
-4.51;-10.82;-10.8;-7.56;-30.77;-104.93;1
-4.94;-10.99;-10.75;-10.12;-26.02;-97.33;1
-4.23;-10.78;-10.82;-10.64;-18.86;-89.17;1
-2.92;-10.4;-10.78;-11.34;-1.88;-84.09;1
-3.21;-9.58;-10.12;-8.89;20.55;-85.46;1
-4.93;-8.53;-8.67;-1.02;44.94;-84.55;1
-6.56;-6.77;-9.14;8.21;63.44;-74.55;1
-7.58;-5.28;-9.34;17.56;69.57;-56.79;1
-7.57;-4.39;-8.72;29.89;66.83;-34.72;1
-7.16;-4.51;-9.11;43.4;56.76;-12.4;1
-6.95;-5.18;-10.33;52.85;46.02;8.5;1
-8.35;-7.86;-11.86;55.07;47.33;30.67;1
-10.54;-9.73;-12.63;54.76;29.01;55.91;1
-10.98;-9.27;-13.11;53.34;-15.7;84.94;1
-9.17;-8.71;-13.68;37.48;-49.13;113.75;1
-6.64;-9.11;-13.39;17.28;-71.69;134;1
-3.76;-10.15;-12.34;4.05;-85.75;148.9;1
-1.69;-10.75;-12.01;1;-79.42;156.9;1
-0.81;-12.18;-11.94;-3.21;-48.33;165.18;1
-0.52;-13.99;-10.91;-2.73;-9.6;171.18;1
0.2;-15.56;-9.81;4.13;16.79;173.58;1
0.46;-15.57;-9.77;9.46;17.11;175.6;1
0.56;-14.09;-10.39;7.34;3.67;177.04;1
0.19;-13.32;-10.48;0.37;-5.56;179.26;1
-0.51;-12.63;-10.02;-5.57;-10.94;179.52;1
-1.22;-12.31;-9.34;-7.05;-14.65;178.25;1
-1.77;-12.35;-8.97;-4.33;-18.64;176.98;1
-2.16;-12.6;-9.19;0.25;-21.63;175.51;1
-1.86;-12.78;-9.3;6.24;-23.35;171.61;1
-1.08;-12.76;-9.76;9.44;-19.44;163.63;1
0.03;-12.08;-10.03;9.43;-14.22;152.34;1
0.24;-11.29;-9.69;8.41;-12.59;139.44;1
0.58;-10.82;-9.41;8.68;-15.49;125.6;1
0.92;-10.34;-9.5;9.88;-11.37;110.6;1
1.54;-9.73;-9.04;12.4;-8.2;91.67;1
1.52;-9.07;-8.31;16.66;-9.42;71.28;1
1.49;-8.22;-8.44;19.08;-6.75;51.52;1
1.37;-7.15;-8.68;18.3;-4;32.73;1
1.17;-6.32;-9.02;16.57;1.32;14.02;1
0.99;-5.21;-9.81;12.24;13.58;-5.72;1
0.52;-4.97;-9.34;7.8;24.32;-28.3;1
-1;-4.89;-8.36;8.33;21.91;-45;1
-1.31;-5.25;-9.55;8.13;26.21;-60.86;1
-1.8;-5.61;-10.73;4.72;50.52;-74.04;1
-2.64;-6.11;-10.47;4.53;75.96;-92.09;1
-4.56;-6;-10.88;9.3;90.26;-107.18;1
-7.04;-6.22;-12.06;11.86;111.72;-118.19;1
-9.4;-7.44;-13.22;12.75;133.26;-122.34;1
-11.83;-8.31;-15.24;3.74;131.73;-113.3;1
-12.42;-7.17;-15.86;-18.99;98.19;-86.91;1
-10.76;-5.22;-15.66;-44.75;40.22;-57.75;1
-7.84;-2.86;-14.59;-72.53;-32.98;-43.4;1
-3.4;-1.91;-11.02;-101.71;-138.52;-45.72;1
-0.6;-8.1;-4.32;-103.31;-199.86;-59.31;1
-2.81;-19.55;4.71;-32.17;-90.04;-73.33;1
-7.23;-19.55;-4.95;56.56;-24.57;-32;1
-6.2;-4.86;-26.17;-5.99;-53.6;16.7;1
-0.73;-3.47;-16.29;-80.01;-16.15;36.7;1
9.65;-8.05;-3.02;-35.59;-8.78;14.44;1
15.68;-9.5;-6.85;2.3;30.06;-38.03;1
10.91;-9.17;-12;0.24;66.19;-86.98;1
1.25;-10.55;-13.2;-10.45;84;-110.08;1
-6.81;-12.82;-11.9;-13.15;62.79;-110.14;1
-9.31;-12.61;-9.02;3.18;21.39;-92.65;1
-7.76;-10.3;-11.06;13.59;-20.5;-75.07;1
-5.08;-9.39;-13.37;4.47;-46.49;-65.66;1
-1.04;-9.57;-11.73;-0.8;-47.07;-65.15;1
2.73;-9.62;-10.76;3.55;-28.02;-76.36;1
4.12;-9.89;-11.79;6.86;3.78;-94.04;1
3.02;-10.81;-12.81;5.46;23.15;-110.93;1
0.55;-11.1;-13.44;1.41;25.1;-120.75;1
-1.76;-10.85;-13.18;-4.15;19.7;-122.56;1
-3.35;-10.26;-12.34;-12.02;5.67;-120.73;1
-3.93;-10.44;-11.11;-16.39;-14.39;-116.18;1
-3.18;-10.62;-11.06;-14.21;-32.01;-112.92;1
-1.2;-10.5;-11.55;-17.39;-37.24;-112.9;1
0.5;-11.31;-11.44;-22.67;-36.71;-116.72;1
1.02;-12.29;-10.52;-24.64;-28.68;-121.68;1
0.41;-12.71;-9.92;-20.1;-18.06;-122.59;1
-0.51;-12.44;-9.65;-15.81;-13.57;-121.17;1
-1.84;-12.01;-9.82;-10.53;-7.75;-117.62;1
-2.68;-11.95;-10.93;-3.94;-2.43;-111.1;1
-2.88;-11.52;-11.65;-3.73;3.96;-102.52;1
-2.36;-10.61;-12.05;-3.71;19.67;-98.39;1
-2.63;-10.41;-11.65;-2.92;52.35;-98.73;1
-4.18;-10.11;-11.13;-3.95;79.64;-99.67;1
-6.36;-8.36;-10.18;-1.43;96.03;-90.83;1
-9.37;-6.38;-9.4;16.1;99.77;-71.14;1
-11.32;-4.47;-10.44;32.78;86.53;-39.61;1
-10.84;-3.53;-10.52;43.12;64.87;-3.67;1
-9.54;-4.59;-9.77;49.51;44.43;29.42;1
-8.13;-6.51;-8.38;61.06;40.48;55.1;1
-7.89;-8.8;-8.99;72.96;47.35;78.39;1
-7.76;-10.16;-11.26;70.5;51.56;99.16;1
-7.79;-10.36;-13.46;62.35;34.24;113.09;1
-7.36;-9.96;-14.22;48.34;1.77;136.45;1
-5.69;-9.62;-13.51;29.06;-27.33;161.35;1
-4.33;-10.89;-12.25;12.7;-45.62;177.74;1
-2.29;-11.98;-12.63;-2.25;-49.55;180.22;1
-0.94;-13.06;-12.22;-18.82;-57.01;177.25;1
-0.6;-14.23;-10.32;-25.3;-55.51;175.88;1
-0.71;-16.04;-7.47;-14.34;-15.28;180.06;1
-0.04;-16.57;-7.79;5.84;-0.97;190.06;1
0.24;-15.4;-8.92;12.11;-12.16;196.37;1
-0.12;-14.2;-10.04;9.17;-12.33;202.53;1
-0.53;-13.72;-10.28;2.33;-14.92;207.1;1
-1.1;-13.38;-9.83;-0.28;-19.36;207.62;1
-1.43;-13.69;-9.22;2.69;-24.94;207.5;1
-1.47;-14.07;-8.94;8.44;-26.65;207.04;1
-1;-14.14;-8.88;15.42;-23.01;201.95;1
-0.02;-13.88;-9.32;21.1;-10.54;195.32;1
0.19;-12.67;-10.18;22.77;3.71;186.05;1
-0.13;-11.6;-11.14;16.72;16.84;176.83;1
0.13;-10.9;-11.47;8.76;26.87;165.39;1
0.59;-10.16;-11.64;1.84;29.65;149.89;1
0.12;-9.21;-11.14;-5.02;23.6;129.12;1
0.83;-8.45;-9.88;-9.99;14.4;105.77;1
-0.08;-7.44;-8.19;-9.28;3.25;83.12;1
-0.42;-7.06;-7.78;-6.6;-4.13;62.24;1
-1.02;-6.32;-7.69;-4.73;-10.56;43.69;1
-1.48;-5.93;-7.71;-0.88;-25.87;25.65;1
-2.05;-4.93;-8.07;4.66;-48.26;7.12;1
-2.65;-3.89;-8.89;8.89;-67.66;-7.33;1
-2.01;-3.23;-9.79;8.22;-66.91;-25.04;1
-1.7;-2.96;-10.21;4.53;-47.8;-46.2;1
-1.73;-3.31;-11;4.58;-13.15;-65.63;1
-1.79;-3.73;-11.94;0.97;27.81;-87.3;1
-3.22;-3.85;-12.22;-6.96;59.08;-107.4;1
-5.98;-4.2;-12.13;-14.8;82.25;-118.27;1
-8.57;-5.36;-12.5;-23.4;100.38;-113.51;1
-9.1;-6.48;-13.32;-35.96;120.51;-99.56;1
-7.12;-6.11;-13.94;-51.31;125.03;-87.46;1
-3.82;-3.52;-13.41;-65.91;67.42;-78.42;1
0.91;-1.3;-8.98;-84.44;-26.48;-81.82;1
2.11;-5.02;3.24;-62.17;-62.52;-98.02;1
-8.44;-14.75;0.11;23.58;13.76;-117.47;1
-19.7;-19.55;-29.68;-23.5;-24.87;-76.15;1
-19.23;-19.55;-11.42;-119;-49.68;69.62;1
5.81;-14.97;5.07;-14.66;-129.52;60.57;1
14.07;-7.72;-10.05;33.86;-105.15;24.65;1
16.57;-2.2;-16.39;-5.22;-34.33;-17.69;1
13.18;-3.49;-13.66;-42.3;40.55;-81.46;1
4.33;-9.16;-9.58;-33.97;83.98;-131.72;1
-7.49;-15.32;-11.07;-34.75;49.67;-147.57;1
-12.19;-19.55;-7.46;-10.66;-8.71;-128.06;1
-9.16;-14.16;-10.29;20.64;-63.1;-86.98;1
-3.71;-10.69;-15.17;1.26;-65.62;-69.07;1
0.38;-11.17;-13.18;-21.19;-43.9;-76.39;1
3.93;-12.1;-10.02;-14.89;-28.58;-93.37;1
4.01;-12.21;-10.73;-3.42;-16.72;-110.98;1
2.27;-12.4;-13.29;-6.16;3.72;-126.36;1
-0.19;-12.74;-13.64;-17.06;12.59;-139.9;1
-1.89;-12.97;-12.2;-21.3;14.04;-143.59;1
-2.19;-12.62;-11.06;-17.5;8.15;-140;1
-2.23;-12.04;-11.04;-14.51;-5.16;-138.69;1
-2.13;-11.93;-11.35;-15.6;-11.7;-139.94;1
-1.62;-11.76;-10.94;-15.95;-16.23;-138.14;1
-0.98;-12;-10.84;-17.32;-14.97;-135.46;1
-0.46;-12.39;-10.71;-16.14;-8.06;-135.37;1
-0.83;-11.87;-11.39;-17.97;0.71;-137.38;1
-1.97;-11.68;-11.42;-20.42;3.67;-136.98;1
-3.08;-11.76;-10.96;-20.54;7.5;-132.46;1
-3.52;-10.87;-10.47;-17.22;12.73;-127.05;1
-3.23;-10.48;-11.21;-15.19;36.63;-123.66;1
-3.34;-10.37;-10.95;-14.18;61.82;-121.93;1
-3.07;-9.79;-10.16;-9.96;97.28;-122.98;1
-4.21;-7.7;-9.89;-0.81;136.11;-121.86;1
-8.16;-5.47;-9.96;15.85;162.44;-102.37;1
-11.97;-3.76;-10.88;33.41;152.09;-62.47;1
-13.25;-2.84;-10.44;42.08;107.83;-19.12;1
-12.18;-4.21;-8.68;54.73;48.8;13.7;1
-10.44;-5.91;-8.89;66.15;7.37;39.04;1
-8.62;-7.8;-10.19;71.05;6.69;64.38;1
-7.7;-9.7;-11.25;68.97;25.64;89.24;1
-6.91;-10.36;-12.74;63.79;35;109.46;1
-6.09;-10.39;-14.34;57.79;24.08;123.71;1
-4.63;-10;-14.76;42.98;6.88;144.2;1
-3.01;-10.64;-14.31;18.11;-12.65;163.05;1
-2.35;-12.65;-13.24;-4.48;-31.21;174.28;1
-1.43;-14.85;-12.6;-22.12;-42.45;177.22;1
-0.87;-16.91;-11.1;-33.31;-38.55;175.75;1
-0.1;-17.48;-8.91;-30.8;-23.11;172.19;1
0.58;-17.1;-8.26;-18.82;-3.07;169.37;1
0.72;-16.14;-8.83;-8.6;3.26;168.55;1
0.41;-14.74;-9.48;-4.05;-0.46;167.79;1
-0.11;-13.33;-10.13;-5.36;-12.67;168.56;1
-0.33;-12.38;-10.17;-9.92;-30.24;170.91;1
-1.1;-11.6;-9.55;-9.55;-51.05;170.73;1
-0.69;-11.19;-9.08;-4.15;-58.74;173.36;1
-0.18;-10.95;-8.89;-1.39;-50.19;172.94;1
-0.68;-10.99;-8.69;3.62;-49.87;170.18;1
-0.16;-10.72;-9.01;10.12;-43.65;165.15;1
0.36;-10.11;-9.52;14.98;-33.47;157.31;1
1.09;-9.42;-9.72;19.18;-21.65;147.09;1
2.04;-8.56;-10.32;20.29;-7.07;134.91;1
2.68;-7.64;-10.56;18.27;4.06;118.42;1
3.28;-6.88;-10.34;14.73;10.74;96.38;1
3.19;-6.22;-9.91;11.63;12.22;73.7;1
2.45;-5.57;-9.69;6.89;8.29;50.02;1
1.72;-5.01;-9.6;1.62;1.72;25.84;1
0.92;-4.53;-9.84;-1.55;-5.35;2.02;1
0.47;-4.34;-10.29;-4.29;-6.98;-21.6;1
0.11;-4.24;-10.7;-8.64;-1.78;-39.63;1
0.21;-4.52;-10.36;-12.46;4.57;-58.08;1
-0.32;-5.09;-9.49;-13.1;14.07;-74.9;1
-0.49;-5.94;-9.08;-9.18;32.67;-95.63;1
-1.75;-6.19;-8.63;-3.27;44.12;-119.06;1
-4.56;-6.02;-7.96;5.11;37.16;-138.84;1
-7.4;-6.59;-8.5;20.23;27.9;-152.37;1
-10.27;-7.67;-11.01;33.38;25.57;-157.63;1
-13.2;-8.73;-15.33;20.23;21.41;-150.19;1
-16.15;-8.92;-17.5;-24.65;4.51;-113.17;1
-17.04;-9;-13.79;-58.7;6.88;-54.19;1
-14.07;-6.7;-10.47;-59.66;10.3;-3.65;1
-8.79;-4.34;-9.75;-67.53;-27.73;18.34;1
-1.22;-6.48;-6.86;-90.45;-110.35;15.4;1
3.53;-19.55;-4.51;-79.57;-133.3;-7.73;1
3.1;-19.55;5.37;15.6;-25.33;-1.78;1
-1.41;-10.37;-14.8;66.05;12.55;28.62;1
-7.7;-0.49;-29.68;-77.99;40.38;67.08;1
5.59;-5.71;-0.74;-79.53;73.25;79.67;1
18.36;-10.03;-0.43;14.06;30.54;24.97;1
16.71;-8.53;-11.95;25.43;60.95;-49.8;1
4.98;-9.61;-16.34;3.42;92.39;-101.88;1
-6.75;-11.8;-15.66;-25.47;55.75;-117.43;1
-12.16;-14.61;-9.26;-17.45;14.16;-100.7;1
-10.75;-12.56;-9.2;18.4;-36.17;-74.37;1
-7.44;-9.19;-14.8;9.89;-95.55;-59.73;1
-3.51;-8.71;-14.16;-13.53;-108.65;-54.69;1
2.35;-9.61;-10.05;-11.99;-85.32;-66.7;1
5.73;-9.79;-10.16;-1.57;-46.46;-88.86;1
5.91;-10.75;-13.3;-5.92;-19.29;-104.69;1
4.21;-12.24;-13.93;-17.22;-0.09;-116.96;1
0.82;-12.68;-12.49;-24.84;11.09;-126.26;1
-2.59;-11.96;-11.6;-27.84;11.17;-130.3;1
-4.58;-10.97;-10.77;-28.24;-1.55;-126.95;1
-5.03;-11.05;-10.48;-26.1;-22.3;-120.29;1
-2.83;-11.9;-9.97;-21.49;-32.64;-117.77;1
-0.78;-12.53;-10.21;-17.6;-32.57;-118.2;1
0.76;-13.57;-10.57;-17.65;-24.28;-121.85;1
-0.15;-14.25;-10.7;-16.49;-17.02;-127.35;1
-1.68;-13.84;-10.19;-16.57;-9.88;-128.12;1
-4.21;-13.54;-9.84;-12.85;-6.15;-120.64;1
-5.95;-13.06;-10.61;-9.5;-8.12;-108.69;1
-6.6;-12.68;-10.44;-8.1;-6.55;-92.96;1
-5.44;-11.18;-10.65;-5.2;2.9;-84.37;1
-4.73;-8.97;-10.36;-2.83;33.07;-79.19;1
-6.32;-7.08;-9.53;5.58;73.99;-71.75;1
-10.23;-5.03;-8.97;18.54;99.49;-52.36;1
-13.55;-3.53;-8.27;35.16;98.19;-21.83;1
-13.78;-2.66;-8.65;46.82;66.17;13.75;1
-12.74;-3.38;-7.89;55.34;34.77;44.12;1
-10.46;-4.43;-8.8;69.4;7.26;70.12;1
-8.21;-5.29;-12.37;73.36;-22.52;94.71;1
-6.34;-8.61;-14.76;60.37;-20.7;122.5;1
-6.31;-11.34;-13.38;45.61;-16;144.98;1
-6.79;-12.15;-12.37;39.6;-31.35;165.71;1
-5.26;-11.93;-12.96;31.59;-50.72;182.58;1
-2.91;-12.64;-13.75;16.01;-56.18;193.08;1
-0.7;-13.61;-12.37;-0.2;-38.63;198.27;1
0.4;-15.41;-8.91;1.46;7.83;197.66;1
1.33;-17.62;-9.09;17.18;31.14;199.49;1
2.04;-17.45;-10.45;21.39;27.82;201.34;1
2.14;-15.74;-10.85;16.91;33.8;202.88;1
1.94;-14.54;-11.11;4.53;44.55;200.16;1
1.18;-13.4;-10.33;-5.17;44.24;194.21;1
0.04;-12.42;-9.41;-7.88;41.29;181.8;1
-1.62;-11.95;-8.91;-5.56;36.14;169.39;1
-2.72;-11.78;-8.77;-2.26;31.51;162.29;1
-3.45;-11.63;-8.8;-0.3;20.88;156.08;1
-3.43;-11.42;-9.28;0.8;-2.12;149.78;1
-2.03;-11.22;-9.62;1.3;-24.31;141.19;1
-0.11;-11.03;-9.56;3.66;-38.43;126.99;1
1.09;-10.81;-9.56;8.77;-45.51;109.3;1
2.13;-9.92;-9.84;12.66;-41.26;88.36;1
3.05;-8.83;-9.92;13.22;-33.16;66.83;1
3.96;-7.65;-9.18;14.88;-23.35;41.52;1
4.6;-6.52;-9.24;16.01;-8.85;11.97;1
4.44;-4.81;-9.71;11.57;10.23;-20.48;1
3.42;-3.53;-9.66;0.11;22.03;-51.29;1
1.88;-3.15;-8.97;-11.34;19.82;-75.52;1
0.51;-4.27;-8.57;-14.44;27.36;-103.43;1
-0.24;-5.04;-8.95;-9.23;65.57;-126.75;1
-1.4;-6.12;-8.45;3.03;109.65;-146.38;1
-4.08;-7.68;-7.71;16.31;135.75;-157.13;1
-7.14;-10.56;-7.98;40.56;156.73;-155.78;1
-8.22;-12.49;-13.43;74.96;178.93;-142.24;1
-9.59;-9.02;-22.9;61.34;175.7;-118.13;1
-11.6;-3.14;-26.46;-23.71;127.95;-80.34;1
-13.32;0.21;-22.3;-110.08;79.46;-44.8;1
-10.26;0.78;-12.33;-154.56;-32.78;-30.26;1
-3.99;-3.92;2.55;-130.16;-191.91;-52.11;1
-2.37;-18.89;6.31;-35.53;-169.95;-85.24;1
-5.22;-19.55;3.9;64.45;-34.41;-78.92;1
-10.68;-11.81;-21.5;73.23;-116.03;-30.76;1
-19.7;-4.38;-29.68;-122.43;-119.46;74.53;1
-1.25;-13.54;3.21;-85.21;-83.16;116.85;1
19.02;-11.45;-0.12;24.78;-46.07;41.7;1
19.52;-6.89;-11.6;35.7;48.9;-31.21;1
14.36;-6.18;-15.35;17.75;116.74;-75.64;1
2.88;-9.18;-15;-6.75;112.7;-102.19;1
-7.82;-15.17;-11.98;-9.64;67.47;-120.13;1
-12.98;-14.89;-9.59;14.97;12.74;-110.04;1
-11.82;-10.43;-12.45;20.25;-59.87;-79.83;1
-6.83;-8.75;-14.14;-0.38;-100.6;-57.36;1
0.38;-9.47;-11.16;-0.4;-90.12;-59.46;1
4.89;-9.54;-11.48;6.9;-66.74;-76.34;1
6.3;-10.6;-13;2.16;-34.22;-97.37;1
5.66;-11.74;-13.68;-4.82;-7.84;-117.56;1
2.94;-11.56;-13.73;-14.53;8.61;-134.17;1
-1;-11.04;-12.83;-21.75;14.8;-139.16;1
-3.62;-10.48;-11.02;-22.13;8.12;-132.29;1
-3.57;-10.25;-10.07;-17.84;0.68;-122.2;1
-1.73;-10.86;-9.98;-15.11;-6.08;-117.44;1
-0.35;-12.32;-10.02;-14.05;-6.42;-119.49;1
0.19;-12.83;-10.2;-12.03;-5.07;-124.85;1
-1.05;-12.99;-10.54;-10.49;-1.68;-127.24;1
-2.79;-12.04;-11.14;-10.18;0.79;-125.06;1
-3.48;-11.02;-10.88;-9.16;9.99;-122.96;1
-4.14;-10.32;-10.77;-3.71;25.2;-125.53;1
-5.46;-10.17;-11.29;-4.43;38.65;-122.53;1
-7.33;-9.26;-10.72;-8.99;48.27;-107.8;1
-10.16;-8.2;-9.49;-2.68;52.87;-84.09;1
-12.25;-7.01;-8.94;17.21;44.87;-53.61;1
-12.41;-5.83;-9.27;36.34;20.12;-17.81;1
-11.44;-6.01;-9.56;47.96;-16.18;16.28;1
-10.33;-7.84;-8.82;57.82;-38.03;46.95;1
-8.64;-9.63;-8.39;65.34;-34.54;75.26;1
-7.7;-9.85;-9.35;67.03;-31.02;97.37;1
-7.47;-9.45;-12.64;61.03;-31.88;115.39;1
-6.07;-7.77;-13.91;50.9;-28.43;137.7;1
-5.31;-8.15;-12.35;39.08;-29.39;157;1
-5.1;-10.11;-11.93;31.8;-27.33;175.65;1
-3.7;-12.68;-12.18;26.56;-18.74;189.12;1
-1.91;-15.25;-12.96;20.09;-9.68;195.07;1
-0.46;-16.03;-12.19;15.3;13.09;194.57;1
1.05;-15.13;-10.78;15.7;25.37;193.44;1
1.88;-14.83;-10.06;14.3;28.17;193.99;1
2.01;-14.91;-10.17;12.59;12.06;196.72;1
1.7;-14.51;-10.63;9.17;-8.65;199.83;1
0.54;-13.65;-10.4;4.43;-8.06;198.59;1
-0.89;-13.29;-9.72;0.24;3.73;192.26;1
-1.56;-12.78;-8.98;-0.04;13.07;187.01;1
-1.74;-12.33;-8.73;5.34;11.97;179.83;1
-1.74;-11.59;-8.73;13.08;5.13;171.46;1
-1.6;-10.63;-8.9;18.83;-4.33;162.83;1
-0.76;-9.58;-9.34;20.7;-9.43;152.71;1
-0.34;-8.52;-9.62;18.09;-13.2;139.75;1
0.4;-7.85;-9.94;12.73;-17.91;125.86;1
1.2;-7.73;-9.98;8.21;-15.1;110.02;1
1.75;-7.67;-10.12;6.6;-10.47;92;1
1.92;-7.32;-10.19;4.88;-2.74;70.53;1
2.14;-6.86;-10.56;0.17;2.12;45.63;1
2.25;-5.93;-10.45;-9.21;-1.38;16.59;1
1.84;-5.33;-9.97;-18.53;-12.4;-14.48;1
1.06;-5.04;-7.98;-21.87;-36;-44.27;1
-0.14;-5.16;-7.43;-13.34;-51.78;-67.69;1
-0.5;-4.64;-8.9;-7.13;-37.17;-88.1;1
-0.37;-4.48;-10.02;-13.8;-2.91;-107.68;1
-1.07;-4.99;-10;-22.18;31.22;-129.25;1
-2.76;-5.99;-9.15;-21.99;61.62;-148.05;1
-4.59;-6.67;-8.89;-11.97;94.05;-157.72;1
-5.94;-8.41;-10.44;-2.47;121.33;-157.54;1
-8.61;-10.15;-15.2;-6.91;121.82;-140.63;1
-10.94;-9;-19.87;-43.66;112.6;-92.15;1
-9.59;-5.26;-16.97;-83.76;101.49;-38.21;1
-4.93;-3.91;-5.93;-88.23;49.91;-25.19;1
-4.62;-10.94;2.17;-38.86;23.45;-52.87;1
-11.47;-19.55;-11.96;-13.73;-11.59;-60.93;1
-12.22;-19.07;-15.01;-36.02;-60.7;-6.16;1
-2.57;-11.01;-7.47;-29.95;-68.94;22.28;1
5.91;-7.86;-8.34;-9.05;-47.8;-0.26;1
12.01;-7.21;-9.62;1.04;-34.68;-40.13;1
10.41;-8.69;-11.97;-2.89;-0.09;-85.82;1
2.63;-12.74;-13.53;-10.11;29.02;-112.79;1
-4.38;-17.06;-13.09;-11.32;13.95;-110.98;1
-5.01;-14.17;-10.76;-1.99;-25.91;-94.02;1
-2.84;-11;-10.9;1.05;-42.53;-82.37;1
-0.69;-10.7;-11.68;-2.54;-32.88;-83.45;1
0.79;-11.4;-11.31;-3.21;-22.14;-94.35;1
1.92;-11.28;-10.81;2.23;-9.3;-105.18;1
2.66;-11.18;-11.88;5.04;6.35;-114.39;1
1.26;-11.54;-13.14;2.69;9.67;-124.3;1
-0.74;-11.73;-12.86;-0.92;4.02;-126.64;1
-1.72;-11.15;-11.91;-4.59;-0.75;-121.65;1
-1.62;-10.84;-11.67;-5.53;-0.44;-117.06;1
-1.3;-10.87;-11.65;-7.52;2.22;-118.76;1
-1.22;-11.44;-11.31;-10.16;3.89;-121.37;1
-1.14;-11.91;-11.14;-9.5;3.86;-123.35;1
-1.24;-11.52;-10.77;-9.19;2.44;-125.56;1
-1.9;-11.65;-10.76;-10.57;0.51;-127.11;1
-2.58;-11.72;-10.52;-9.39;-7.04;-125.33;1
-3.22;-11.92;-10.79;-7.75;-11.43;-121.77;1
-3.63;-11.26;-10.83;-5.47;-10.75;-115.56;1
-3.62;-10.01;-10.77;-4.46;4.82;-110.89;1
-4.1;-9.09;-11.37;-2.53;31.54;-111.51;1
-5.18;-8.69;-11.08;-2.95;55.01;-112.52;1
-7.15;-7.92;-9.84;-0.28;71.26;-100.94;1
-11.7;-6.76;-8.86;10.43;74.93;-72.89;1
-15.6;-4.99;-8.94;29.21;61.54;-34.31;1
-15.72;-3.27;-9.47;47.37;25.53;8.12;1
-11.83;-3.66;-10;55.52;-13.21;45.83;1
-8.68;-6.14;-9.43;62.62;-23.43;74.48;1
-7.17;-9.34;-9.3;68.63;-7.81;101.69;1
-6.85;-11.09;-13.21;64.97;-6.02;120.85;1
-7.01;-10.73;-15.5;51.56;-21.61;136.7;1
-5.8;-9.79;-14.31;29.43;-39.75;155.21;1
-5.24;-11.24;-12.47;17.79;-62.13;172.65;1
-3.91;-12.29;-12.78;8.89;-70.36;186.29;1
-2.3;-13.94;-13.06;-2.44;-61.97;196.16;1
-0.55;-15.96;-12.58;-12.21;-43.02;198.01;1
0.56;-17.42;-9.85;-11.65;-7.97;196.02;1
1.81;-18.36;-8.21;3.95;15.45;197.05;1
2.82;-17.45;-8.28;17.27;9.54;199.9;1
3.25;-15.7;-9.26;19.65;-0.23;200.37;1
2.57;-14.92;-9.97;14.1;-1.31;200.27;1
1.38;-13.77;-9.77;7.03;8.64;194.01;1
0.41;-13.06;-9.12;4.19;17.76;183.57;1
-1.02;-12.46;-8.6;5.45;18.02;176.17;1
-1.06;-12.17;-8.54;8.82;20.58;170.7;1
-1.19;-11.81;-8.74;13.9;17.71;164.69;1
-0.54;-11.57;-9.27;18.74;13.09;156.27;1
0.04;-11.03;-9.86;21.21;10.62;144.45;1
0.46;-10.27;-10.41;21.84;7.37;130.36;1
1.19;-9.1;-10.74;18.85;6.04;115.3;1
1.88;-8.12;-10.89;11.64;1.75;96.67;1
2.85;-7.16;-10.71;4.91;0.37;75.08;1
3.27;-6.39;-10.35;2.19;2.82;49.84;1
3.2;-5.33;-10.43;-1.96;5.57;20.88;1
3.18;-3.89;-10.92;-10.18;11.32;-9.51;1
2.67;-2.99;-10.32;-19.89;9.86;-38.47;1
1.92;-3;-8.86;-23.22;-2.52;-63.62;1
0.39;-3.41;-6.96;-17.44;-9.31;-85.75;1
-1.03;-4.01;-7.91;-10.5;14.62;-105.84;1
-3.45;-4.43;-7.85;0.84;46.89;-125.98;1
-6.01;-5.39;-7.81;18.82;61.41;-146.17;1
-8.47;-6.92;-9.72;30.79;69.11;-158.61;1
-10.18;-8.84;-12.56;41.6;81.68;-162.25;1
-12.04;-10.47;-17.78;37.91;81.45;-141.48;1
-13.53;-8.93;-22.12;-11.67;74.1;-90.2;1
-12.07;-4.23;-18.8;-77.02;73.39;-35.08;1
-8.04;-2.16;-11.11;-117.46;32.97;-14.29;1
-2.01;-5.03;-3.56;-124.47;-104.35;-33.46;1
-2.02;-19.55;-2.04;-78.15;-190.46;-57.52;1
-5.01;-19.55;1.13;18;-100.04;-42.75;1
-5.58;-11.07;-11.8;47.61;-46.04;9.44;1
-6.67;-1.76;-26.19;-89.19;-47.45;45.77;1
5.26;-10.9;0.44;-48.86;4.46;55.48;1
16.98;-10.78;-6.31;24.33;19.92;-1.69;1
16.55;-8.57;-11.62;15.6;67.8;-62.47;1
7.04;-10.14;-12.96;-2.39;94.61;-96.23;1
-3.36;-13.92;-12.17;-4.16;77.36;-107.21;1
-8.63;-14.61;-10.62;7.63;32.8;-101.26;1
-8.74;-11.62;-10.96;21.28;-9.71;-84.18;1
-6.53;-10.02;-13.97;12.34;-53.11;-70.57;1
-2.97;-10.29;-12.64;2.18;-65.65;-64.82;1
1.9;-9.95;-11.08;6.81;-53.2;-72.33;1
4.45;-8.92;-11.94;10.56;-20.15;-89.5;1
4.83;-9.58;-13.28;2.79;10.29;-106.32;1
2.65;-11.31;-13.72;-2.88;20.52;-118.41;1
-0.27;-11.5;-13.13;-7.27;20.49;-124.28;1
-2.35;-11.09;-12.08;-7.64;18.35;-124.35;1
-3.69;-10.21;-11.46;-8.95;11.38;-118.37;1
-3.4;-10.02;-10.73;-7.86;-0.23;-112.08;1
-1.88;-10.58;-10.57;-5.54;-4.15;-108.62;1
-0.13;-11.7;-10.98;-3.66;-2.25;-110.79;1
0.55;-12.34;-10.79;-4.44;-2.18;-114.37;1
0.52;-12.31;-11.07;-5.33;4.14;-117.84;1
-1.21;-12.28;-10.39;-5.79;8.29;-117.12;1
-2.71;-12.44;-10.24;0.65;9.89;-114.44;1
-3.62;-11.52;-10.67;2.73;7.33;-109.21;1
-3.49;-10.38;-11.01;5.14;10.93;-105.28;1
-3.21;-8.95;-11.57;7.47;26.81;-104.88;1
-4.3;-8.58;-11.74;7.34;50.53;-102.84;1
-6.89;-8.82;-11.13;6.74;70.43;-95.82;1
-9.76;-7.99;-9.79;9.83;84.54;-79.08;1
-12.12;-6.36;-8.85;23.92;81.21;-52.76;1
-14.11;-4.6;-9.27;44.2;62.28;-17.43;1
-12.95;-2.75;-9.99;57.18;41.35;22.05;1
-9.84;-3.63;-8.86;61.76;32.48;54.73;1
-7.16;-5.71;-8.31;72.71;33.04;79.52;1
-6.43;-8.2;-11.51;69.73;32.41;108.67;1
-6.82;-10.37;-15.87;49.66;22.23;131;1
-7.03;-11.6;-15.07;31.33;17.74;144.56;1
-7.17;-12.56;-14.46;14.93;-24.33;159.65;1
-6.45;-13.77;-14;1.37;-76.58;171.6;1
-4.85;-14.43;-14.71;-17.51;-106.1;179.11;1
-2.91;-15.13;-15.04;-39.35;-128.47;184.88;1
-0.82;-16.67;-14.11;-55.15;-136.38;185.62;1
0.57;-17.85;-11.56;-60.15;-117.01;183.41;1
1.55;-18.01;-7.57;-47.99;-58.75;186.61;1
3.3;-17.2;-6.78;-19.02;-4.62;192.75;1
4.78;-15.63;-8.9;-8.07;13.06;195.13;1
4.82;-14.21;-9.63;-13.58;29.78;191.15;1
3.44;-12.73;-9.39;-19.53;24.73;181.63;1
2.03;-11.34;-9.08;-19.63;12.93;169.96;1
-1.24;-10.38;-8.54;-15.62;-8.33;158.4;1
-1.56;-10.29;-8.59;-10.37;-16.39;150.6;1
-2.96;-9.96;-8.77;-3.24;-31.89;142.54;1
-2.47;-9.63;-9.31;1.99;-39.95;138.28;1
-0.75;-9.2;-9.69;4.06;-40.56;130.86;1
1.28;-8.78;-9.9;6.24;-35.97;119.11;1
3.22;-8.5;-9.91;8.9;-27.75;101.67;1
4.6;-7.96;-9.8;12.61;-18.84;78.35;1
6.06;-6.99;-9.79;15.57;-3.18;49.88;1
6.14;-6.19;-10.16;13.99;15.8;18.08;1
5.68;-5.09;-10.91;6.56;35.76;-12.95;1
5.07;-4.15;-11.54;-8.5;51.33;-44.11;1
4.23;-3.97;-10.88;-27.17;50;-74.43;1
2.1;-5.07;-7.7;-37;37.04;-103.56;1
-1.2;-7.4;-2.04;-13.54;28.47;-128.21;1
-4.79;-9.09;-3.34;26.53;52.99;-151.18;1
-8.11;-10.52;-7.41;61.79;114.36;-165.41;1
-11.08;-11.45;-11.45;92.1;141.84;-167.85;1
-12.31;-9.81;-17.76;102.93;84.96;-152.27;1
-15.35;-8.44;-29.68;32.39;47.54;-114.46;1
-19.37;-5.4;-26.08;-89.28;63.95;-37.2;1
-16.94;-4.65;-11.33;-140.24;68.24;23.46;1
-10.14;-5.73;-2.02;-127.08;-27.4;32.7;1
-1.3;-9.73;3.89;-76.8;-178.31;4.14;1
5.36;-18.99;-0.78;-11.39;-185.06;-27.62;1
9.78;-19.16;-3.55;23.81;-47.26;-43.5;1
4.62;-9.75;-12.31;42.07;10.98;-49.72;1
-10.27;-6.04;-29.68;-62.4;-10.08;-3.04;1
-3.27;-12.21;-7.61;-80.66;0.14;56.11;1
10.99;-13.6;-5.36;-11.12;-18.59;20.77;1
14.07;-12.06;-11.42;15.18;29.09;-42.14;1
8.4;-10.43;-16.15;-3.53;53.02;-87.5;1
0.03;-11.49;-13.52;-16.84;53.51;-99.19;1
-4.36;-12.86;-10.99;-9.46;25.96;-99.78;1
-6.51;-12.73;-10.89;1.82;-11.87;-96.01;1
-5.87;-10.78;-11.94;0.01;-56.16;-82.4;1
-1.91;-9.76;-11.19;0.29;-64.93;-74.83;1
2.86;-9.9;-11.28;4.42;-38.93;-78.54;1
5.61;-10.3;-12.47;4.95;-4.44;-93.92;1
4.83;-10.77;-12.98;3.06;20.26;-108.16;1
2.5;-10.38;-13.15;-1.15;37.14;-115.46;1
-0.02;-10.27;-12.99;-5.74;53.04;-116.08;1
-1.66;-10.05;-12.09;-5.7;49.74;-111.69;1
-1.96;-9.73;-11.18;-2.35;41.26;-106.23;1
-1.18;-9.76;-11.32;0.46;39.9;-102.63;1
-0.31;-10.3;-11.59;1.89;41.5;-102.96;1
0.3;-10.64;-11.56;1.01;44.79;-107.33;1
0.36;-11.09;-10.98;0.86;49.92;-110.37;1
0.14;-11.72;-10.34;4.63;55.87;-111.66;1
-0.56;-11.57;-11.1;10.7;59.32;-113.34;1
-1.49;-10.56;-12.07;11.16;57.57;-114.63;1
-2.47;-10.35;-12.58;8.41;54.5;-115.09;1
-3.18;-10.18;-12.45;7.72;53.74;-115.63;1
-3.99;-9.63;-12.01;10.69;57.53;-117.01;1
-5.34;-9.41;-11.56;14.97;67.55;-113.6;1
-8.04;-9.38;-11.03;18.58;87.15;-103.37;1
-10.44;-8.61;-10.6;26.81;92.87;-86.13;1
-11.01;-7.61;-10.81;37.14;73.38;-58.52;1
-10.21;-6.81;-10.95;47.04;54.96;-21.56;1
-10.36;-6.24;-10.75;55.53;34.6;14.67;1
-10.72;-6.33;-10.97;62.18;25.73;46.23;1
-9.97;-8.14;-11.16;66.47;35.75;80.97;1
-8.3;-10.49;-10.22;67.47;56.23;112.28;1
-6.94;-11.87;-9.51;70.56;62.25;134.31;1
-6.55;-10.88;-14.07;54.89;31.38;151.88;1
-5.66;-10.08;-14.05;25.5;-1.01;169;1
-4.75;-11.74;-12.86;5.77;-28.29;186.41;1
-2.99;-12.98;-13.32;-8.04;-60.49;195.58;1
-2.12;-15.13;-13.51;-21.53;-81.52;193.92;1
-1.87;-17.09;-13.53;-36.3;-83.38;188.82;1
-0.81;-16.97;-12.75;-47.15;-83.45;182.22;1
0.29;-15.68;-10.62;-52.05;-74.49;178.1;1
0.41;-15.67;-8.11;-46.28;-39.78;181.77;1
1.06;-16.06;-7.67;-26.99;-17.61;189.79;1
2.08;-15.12;-8.77;-16.84;-26.93;192.48;1
2.02;-13.45;-9.36;-18.88;-35.01;190.67;1
1.51;-11.93;-9.09;-22.68;-33.86;187.25;1
2.15;-11.43;-9.08;-22.4;-22.85;182.53;1
0.95;-11.06;-9.2;-19.82;-27.51;175;1
-0.28;-10.75;-9.1;-14.18;-37.69;168.54;1
-0.54;-10.67;-9.21;-5.58;-44.96;161.7;1
-0.02;-10.2;-9.9;4.62;-46.94;149.6;1
0.16;-9.33;-10.52;9.66;-44.7;135.95;1
0.74;-7.97;-10.83;9.29;-42.07;123.61;1
1.98;-6.74;-10.7;7.59;-38.18;110.12;1
2.99;-6.05;-10.75;4.98;-35.24;92.4;1
4.25;-5.78;-10.6;1.01;-28.8;69.21;1
5.05;-5.52;-10.46;-4.53;-21.1;39.39;1
4.62;-5.06;-10.08;-12.35;-19.04;6.63;1
3.78;-4.52;-10.37;-21.22;-18.07;-23.96;1
3.06;-4.49;-10.76;-28.51;-8.72;-50.65;1
2.42;-4.19;-9.93;-37.51;1.45;-72.34;1
1.95;-4.84;-7.38;-38.61;7.51;-92.59;1
0.26;-6.75;-4.68;-22.4;19.51;-118.3;1
-3.25;-7.93;-4.56;1.02;34.66;-144.82;1
-8.11;-9.84;-6.52;31.37;68.42;-166.59;1
-11.74;-10.74;-10.36;53.48;88.87;-176.19;1
-13.44;-10.61;-15.62;54.48;72.38;-164.14;1
-15.9;-9.61;-22.96;13.26;65.67;-116.5;1
-16.63;-6.17;-22.72;-63.07;82.12;-53.94;1
-13.51;-4.07;-14.17;-112.07;78.22;-13.87;1
-9.08;-3.8;-5.56;-124.73;10.54;1.79;1
-2.84;-9.43;0.67;-97.25;-116.57;-15;1
-0.86;-19.55;-2.49;-28.96;-152.75;-37.79;1
-0.98;-19.55;-2.28;44.76;-76.09;-24.58;1
-5.66;-6.93;-21.1;3.86;-61.17;8.83;1
-10.71;-4.51;-20.91;-105.92;-20.91;55.37;1
5.99;-12.1;1.88;-22.77;-5.19;61.56;1
18.73;-9.26;-9.02;18.67;-15.29;6.37;1
18.27;-8.71;-13.65;5.58;49.69;-55.17;1
8.13;-11.83;-15.3;-7.99;91.04;-104.79;1
-3.39;-14.66;-13.86;-14.7;63.06;-125.79;1
-10.34;-13.7;-11.03;-9.79;12.52;-114.67;1
-11.58;-10.93;-10.61;2.71;-32.46;-89.98;1
-8.5;-9.43;-13.18;-5.1;-84.54;-68.63;1
-2.01;-9.43;-10.99;-10.19;-91.82;-59.65;1
4.06;-9.87;-9.62;-1.15;-63.49;-72.61;1
6.15;-9.95;-11.36;5.99;-20.49;-94.24;1
5.69;-10.43;-12.7;3.57;11.38;-112.38;1
3.13;-10.6;-12.89;-0.1;26.8;-121.11;1
0.04;-10.8;-12.66;-5.16;40.27;-122.69;1
-2.86;-10.42;-12.54;-7.73;38.97;-120.55;1
-4.18;-9.27;-12.15;-11.19;22.32;-113.21;1
-3.37;-9.16;-11.21;-13.54;5.03;-106.85;1
-1.01;-10.06;-10.86;-11.93;-0.39;-106.4;1
0.96;-11.22;-10.94;-9.36;-0.55;-113.56;1
1.29;-11.72;-10.98;-10.04;6.75;-121.55;1
0.27;-12.59;-10.4;-9.44;11.64;-124.7;1
-1.28;-12.58;-10.34;-4.15;16.22;-123.43;1
-2.78;-12.28;-10.84;-2.36;16.56;-119.69;1
-3.85;-11.63;-11.32;-1.44;19.15;-113.53;1
-3.9;-10.25;-11.42;-1.04;28.49;-109.66;1
-4.01;-9.71;-11.5;0.79;41.51;-107.4;1
-5.47;-9.63;-11.5;0.98;57.87;-102.32;1
-8.41;-9.14;-10.22;2.43;68.5;-90.47;1
-11.35;-8.15;-8.98;12.18;72.58;-64.41;1
-13.58;-6.9;-8.96;34.48;66;-28.24;1
-13.89;-5.26;-9.79;52.92;42.35;9.73;1
-12.53;-4.62;-9.95;59.76;16.7;40.54;1
-10.44;-5.61;-7.8;69.2;12.58;65.89;1
-7.45;-6.88;-6.58;89.33;30.12;89.47;1
-5.68;-7.21;-10.26;91.35;43.48;115.85;1
-6.78;-8.64;-14.16;72.22;51.32;140.47;1
-7.63;-10.35;-14.68;57.05;54.45;171.5;1
-5.85;-11.15;-14.44;39.84;25.22;196.08;1
-4.69;-12.02;-13.76;19.4;-14.56;205.07;1
-3.08;-12.72;-13.73;-7.67;-35.55;198.74;1
-1.63;-13.88;-13.25;-33.35;-47.49;185.54;1
-1.21;-14.63;-10.58;-43.9;-44.17;176.28;1
-1.18;-16.79;-7.59;-25.02;-15.88;179.5;1
-0.21;-17.36;-8.98;-3.07;-27.4;187.78;1
0.31;-15.83;-9.99;0.48;-42.06;191.4;1
0.54;-14.56;-9.97;-7.4;-23.28;193.5;1
0.9;-13.51;-9.48;-17.43;0.37;194.31;1
1.19;-12.94;-8.49;-19.87;-2.07;187.1;1
0.4;-12.95;-7.79;-17.24;-21.02;177.29;1
0.17;-13.34;-7.7;-10.65;-26.52;171.42;1
-0.32;-13.44;-7.58;1.95;-24.77;162.17;1
-0.44;-12.68;-7.95;13.56;-22.77;150.64;1
-0.39;-11.8;-8.88;18.92;-19.84;139.89;1
-0.5;-11.13;-9.83;17.82;-15.45;127.25;1
0.04;-10.8;-10.64;14.57;-5.71;112.8;1
-0.01;-10.15;-10.78;10.18;-1.84;95.59;1
0.73;-9.3;-10.33;9.91;-3.97;78.42;1
1.58;-8.47;-9.99;11.09;-6.26;57.93;1
2.38;-7.69;-9.94;9.87;-8.51;31.11;1
2.88;-7.07;-10.03;5.34;-6.33;2.3;1
3.54;-5.68;-10.57;-7.95;2.32;-30.4;1
2.61;-5.44;-9.34;-17.99;-0.68;-64.35;1
1.35;-5.51;-7.53;-14.7;-8.24;-90.18;1
0.16;-5.81;-10.66;-14.53;29.94;-109.18;1
-0.46;-6.43;-10.57;-16.21;91.09;-129.4;1
-3.21;-6.57;-8.3;-1.12;123.61;-137.53;1
-5.36;-6.59;-9.17;12.6;150.23;-136.76;1
-5.77;-6.3;-12.48;15.21;164.4;-125.21;1
-6.46;-6.17;-17.52;1.08;143.03;-113.81;1
-9.2;-4.04;-23.73;-54.04;84.74;-87.88;1
-10.58;-0.8;-22.3;-126.35;18.04;-53.25;1
-5.21;-1.7;-5.03;-139.26;-38.73;-47.23;1
2.32;-7.98;9.54;-31.34;-47.94;-87.08;1
-3.62;-14.24;-4.83;34.35;-33.46;-135.96;1
-19.66;-19.55;-23.2;3.99;-72.23;-108.21;1
-19.7;-12.16;-17.88;-51.44;-136.53;14.41;1
-4.62;-8.66;-2.64;-58.93;-127.57;59.09;1
12.62;-10.84;-0.56;15.92;-96.31;16.96;1
17.32;-8.47;-11.49;35.69;-27.98;-35.75;1
13.29;-7.24;-16.45;10.12;46.83;-79.97;1
5.33;-11.62;-14.05;-11.59;79.36;-108.98;1
-0.73;-17.66;-10.77;-5.06;49.96;-123.83;1
-4.07;-15.53;-10.27;13.03;8.05;-123.95;1
-7.83;-10.67;-11.92;10.47;-36.5;-108.13;1
-7.9;-10.35;-12.69;-4.37;-53.23;-84.54;1
-2.15;-11.51;-10.27;0.27;-53.22;-78.31;1
3.76;-11.96;-10.82;12.09;-45.79;-90.69;1
5.8;-12.23;-12.97;8.19;-24.88;-109.85;1
4.51;-13.32;-13.2;0.45;-0.04;-126.32;1
1.81;-12.95;-12.48;-3.24;19.35;-131.74;1
-1.39;-12.55;-11.82;-5.43;28.13;-133.41;1
-4.35;-12.14;-11.33;-5.01;28.53;-127.62;1
-5.37;-11.44;-11.3;-3.13;19.89;-119.57;1
-4.89;-11.66;-11.25;-3.73;8.22;-112.8;1
-4.08;-11.67;-11;-2.53;-7.92;-110.16;1
-3.8;-11.25;-11.04;-1.78;-10.55;-107.96;1
-3.84;-10.75;-11.24;0.74;0.23;-107.21;1
-5.63;-10.16;-10.94;2.32;12.96;-110.16;1
-6.32;-9.02;-10.28;5.65;21.88;-104.85;1
-7.54;-7.36;-9.39;13.27;36;-96.2;1
-9.61;-5.67;-9.47;17.84;55.96;-75.45;1
-12.04;-3.91;-9.14;25.97;63.22;-45.75;1
-12.98;-2.62;-9.15;38.79;54.12;-8.13;1
-11.38;-2.51;-8.74;47.6;35.01;30.03;1
-9.71;-3.7;-8.42;56.65;13.12;61.12;1
-8.46;-6.28;-11.1;60.4;-5.28;89.11;1
-7.47;-8.67;-13.9;48.56;-15.4;121.67;1
-7;-10.68;-13.67;31.14;-10.75;144.22;1
-7.58;-12.1;-12.25;22.39;-28.03;159.7;1
-6.9;-12.3;-12.37;18.9;-58.99;170.54;1
-4.63;-12.74;-13.83;5.34;-81.74;176.99;1
-2.08;-13.42;-14.94;-16.77;-91.45;181.28;1
-0.58;-14.33;-13.71;-35.95;-85.87;182.28;1
0.07;-16.48;-10.41;-42.28;-53.8;181.54;1
0.89;-19.32;-7.06;-22.33;4.93;182.6;1
2.75;-18.03;-8.57;-1.33;14.85;183.34;1
3.18;-15.83;-9.67;-1.19;15.12;180.56;1
2.64;-14.35;-9.96;-10.12;18.83;176.56;1
1.17;-13.24;-9.48;-17.05;14.65;169.17;1
-0.8;-12.2;-8.61;-17.73;1.45;159.68;1
-1.73;-11.77;-8.21;-15.47;-11.25;153.81;1
-1.79;-11.51;-8.23;-12.36;-17.44;148.89;1
-1.55;-11.23;-8.28;-6.76;-25.91;142.97;1
-1.03;-10.88;-8.52;-0.31;-35.26;135.42;1
0.58;-10.55;-9.05;6.07;-36.15;123.3;1
1.72;-10.01;-9.79;10.58;-32.26;106.79;1
2.85;-9.15;-10.09;12.45;-26.17;88.6;1
3.67;-8.26;-10.24;13.93;-19.46;68.73;1
4.48;-7.43;-10.46;14.37;-9.35;46.03;1
5.51;-6.34;-11.06;9.93;12.78;20.19;1
6.42;-5.28;-11.62;-1.26;41.62;-9.94;1
4.94;-3.79;-10.05;-11.31;47.22;-38.06;1
3.08;-3.97;-7.81;-15.06;33.9;-65.7;1
0.39;-4.97;-5.41;-13.04;21.87;-91.65;1
-2.38;-6.05;-5.23;-1.48;29.4;-115.85;1
-5.16;-7.24;-7;14.01;63.17;-140.84;1
-8.81;-8.53;-8.29;38.64;92.66;-154.94;1
-10.37;-9.64;-9.63;62.33;81.2;-153.63;1
-10.19;-10.4;-14.14;76.35;66.69;-142.98;1
-11.05;-9.38;-22.49;52.95;85.57;-115.44;1
-0.09;0.06;-10.07;-19.72;118.26;-71.41;1
-10.98;-3.59;-18.17;-93.04;128.1;-22.79;1
-8.07;-3.76;-8.42;-120.54;69.35;-2.9;1
-2.77;-6.1;-1.9;-110.92;-76.28;-21.52;1
-2.22;-15.67;-2.24;-59;-166.05;-50.65;1
-2.36;-19.55;-4.19;-1.22;-114.62;-55.82;1
-2.25;-13.53;-4.15;45.72;-0.98;-46.22;1
-7.25;-4.78;-23.59;-22.71;-65.35;-15.63;1
-5.69;-7.31;-13.77;-76.43;-50.54;33.55;1
7.62;-12.15;-3.06;-1.3;-38.88;24.21;1
14.46;-9.85;-11.17;21.97;13.19;-28.83;1
11.4;-9.32;-14.22;10.67;58.35;-71.76;1
3.31;-10.47;-14.41;-2.67;73.06;-90.47;1
-3.83;-11.78;-13.14;-10.65;50.58;-90.66;1
-7.26;-12.42;-10.48;-6.89;17.42;-83.3;1
-7.04;-11.49;-10.6;2.52;-24.84;-72.14;1
-3.33;-10.18;-11.92;-2.2;-62.51;-67.95;1
0.81;-10.15;-10.92;-1.47;-58.66;-71.8;1
4.18;-10.7;-11.08;3.5;-31.68;-83.77;1
4.67;-11.36;-11.9;4.48;-7.17;-98.76;1
3.17;-11.83;-12.79;3.72;10.7;-109.89;1
0.98;-11.74;-13.06;-1.31;25.06;-112.98;1
-0.65;-11.46;-11.82;-4.34;28.93;-110.61;1
-1.62;-11.35;-10.73;-0.97;22.51;-107.64;1
-1.85;-11.44;-11;2.26;17.43;-106.69;1
-1.29;-11.22;-11.3;3.94;15.8;-106.3;1
-0.64;-11.38;-11.26;0.37;23.02;-107.84;1
-1;-11.98;-10.67;1.15;28.68;-109.82;1
-1.91;-12.01;-10.54;4.64;29.81;-110.75;1
-2.74;-11.73;-10.96;8.34;24.4;-110.32;1
-3.17;-11.06;-11.51;9.42;19.56;-108.82;1
-3.81;-10.4;-11.52;9.93;17.36;-106.82;1
-4.83;-9.42;-11.26;11.84;21.51;-105.85;1
-6.67;-8.67;-11.45;13.73;28.38;-100.31;1
-8.08;-8.01;-11.22;14.03;34.98;-91.19;1
-9.47;-7.69;-10.57;14.6;40.51;-78.35;1
-10.01;-6.28;-9.76;20.37;40.75;-56.62;1
-11.37;-4.93;-10.04;35.14;32.86;-26.3;1
-12.71;-3.31;-10.51;47.47;24.09;8.64;1
-11.64;-2.88;-9.66;53.64;21.68;44.57;1
-8.67;-4.47;-7.35;64.88;28.38;75.57;1
-5.95;-6.16;-8.3;74.5;27.48;103.37;1
-4.84;-8.43;-14.04;60.6;18.84;130.21;1
-5.12;-11.23;-15.14;36.06;23.9;148.12;1
-6.25;-13.31;-14.24;22.86;18.35;160.95;1
-6.98;-14.13;-13.65;13.55;-26.21;174.34;1
-5.45;-14.65;-13.54;0.8;-73.82;180.58;1
-3.82;-15.33;-14.8;-22.42;-101.72;183.59;1
-1.9;-15.49;-15.15;-46.89;-118.45;183.39;1
-0.38;-16.06;-13.11;-64.69;-126.14;179.77;1
0.88;-16.81;-8.95;-65.13;-90.04;178.19;1
1.6;-17.89;-5.55;-32.18;-21.65;181.46;1
3.59;-16.53;-7.96;-9.7;-3.62;187.68;1
4.3;-14.67;-9.11;-10.45;9.52;188.49;1
3.8;-13.45;-9.23;-15.72;14.83;182.41;1
2.25;-12;-8.67;-17.89;6.97;170.04;1
0.58;-10.88;-8.19;-16.3;-10.06;156.89;1
-0.44;-10.7;-7.74;-12.71;-20.17;145.83;1
-2.27;-10.54;-7.84;-4.64;-34.79;136.18;1
-2.61;-10.32;-8.39;2.14;-41.55;130.57;1
-1.5;-9.98;-9.25;5.64;-39.04;124.47;1
0.59;-9.7;-9.64;8.66;-36.08;114.31;1
2.51;-9.45;-9.86;13.9;-31.41;98.51;1
4.34;-8.89;-10.06;19.76;-21;77.28;1
5.5;-7.66;-10.28;23.76;-6;50.99;1
5.82;-6.42;-10.67;22.51;12.77;20.96;1
5.37;-4.85;-11.23;14.11;32.44;-10.3;1
4.63;-3.82;-11.82;0.13;48.25;-37.42;1
3.6;-3.7;-11.41;-14.68;50.76;-60.82;1
2.22;-4.09;-9.15;-25.7;38.87;-84.08;1
-0.63;-5.49;-4.95;-20.44;24.47;-102.78;1
-2.89;-7.52;-3.78;4.41;30.21;-122.95;1
-6;-9;-5.96;34.27;71.63;-143.42;1
-9.17;-9.73;-9.46;58.67;116.4;-154.82;1
-11.61;-8.91;-12.68;70.63;109.83;-148.43;1
-13.27;-6.9;-20.33;52.74;77.58;-124.43;1
-17.07;-6.96;-25.68;-23.65;60.99;-77.66;1
-18.83;-7.14;-18.77;-95.05;58.53;-11.59;1
-14.87;-7.61;-9.66;-101.5;31.99;27.48;1
-9.04;-6.51;-6.45;-88.7;-42.31;31.28;1
0.98;-7.95;-3.06;-78.16;-167.16;4.67;1
7.52;-19.55;-3.8;-39.46;-202.72;-38.19;1
7.53;-19.55;-2.22;13.94;-95.81;-54.72;1
0.26;-11.04;-10.19;42.21;-3.41;-34.85;1
-10.12;-4.17;-29.68;-85.33;-43.26;13.81;1
-3.07;-10.79;-5.21;-102.95;1.74;61.91;1
13.77;-13.75;-0.16;2.6;-2.62;23.86;1
17.03;-10.52;-10.45;14.87;43.85;-45.33;1
9.86;-10.21;-13.01;4.63;92.16;-89.65;1
0.64;-11.94;-13.11;-0.15;96.25;-103.33;1
-5.42;-12.88;-11.48;3.69;57.9;-101.23;1
-8.24;-12.64;-10.54;12.83;21.67;-89.45;1
-7.73;-10.62;-12.49;16.89;-26.41;-73.39;1
-2.67;-9.11;-13.28;7;-49.11;-62.56;1
1.77;-9.53;-11.76;3.91;-32.03;-67.64;1
3.81;-9.97;-11.56;7.91;-5.13;-83.73;1
4.26;-10.44;-13.16;9.63;22.92;-99.13;1
2.5;-10.24;-14.16;4.37;36.68;-111.57;1
-0.32;-10.32;-13.8;-6.19;36.8;-115.78;1
-2.19;-10.24;-12.02;-7.81;32.68;-112.13;1
-2.68;-9.92;-10.98;-4.83;25.08;-107.59;1
-2.02;-9.86;-10.49;-1.81;14.61;-104.76;1
-0.37;-10.05;-10.99;1;14.91;-107.02;1
0.81;-10.61;-11.18;1.05;20.8;-114.19;1
0.83;-11.45;-11.15;0.1;25.87;-120.59;1
0.36;-12.09;-10.44;1.06;28.61;-123.68;1
-0.37;-11.9;-10.27;5.21;30.13;-124.5;1
-1.11;-11.28;-10.75;7.21;32.02;-122.71;1
-1.73;-11.02;-11.34;6.06;34.06;-119.85;1
-1.66;-10.95;-11.39;6.29;42.21;-115.62;1
-1.28;-10.23;-10.95;11.02;61.18;-117.87;1
-3.18;-9.65;-10.82;18.25;82.41;-117.71;1
-7.03;-9.51;-10.87;23.49;103.03;-108.63;1
-11.35;-9.16;-10.66;30.37;109.26;-90.24;1
-12.48;-7.95;-11.12;37.27;91.83;-61.25;1
-11.46;-6.72;-11.72;47.87;63.14;-27.94;1
-11.04;-5.63;-11.97;56.65;34.83;5.34;1
-11.01;-5.32;-11.37;59.13;27.27;34.08;1
-10.22;-5.47;-11.35;59.08;31.77;57.46;1
-8.74;-7.73;-10.42;58.51;39.83;85.32;1
-6.87;-10.97;-9.14;64.4;49.18;115.59;1
-7.04;-12.42;-12.45;65.47;44.85;135;1
-6.92;-9.84;-15.44;38.47;13.87;150;1
-6;-9.1;-13.92;7.98;-16.47;165.91;1
-4.47;-11.29;-13.34;-12.53;-53.62;182.76;1
-2.99;-13.85;-13.41;-26.2;-96.7;188.69;1
-2.47;-16.28;-13.75;-41.39;-108.75;188.45;1
-1.86;-18.28;-13.82;-55.57;-109.11;184.34;1
-0.54;-17.69;-12.94;-63.47;-119.06;179.29;1
0.92;-15.62;-10.67;-66.05;-107.56;173.67;1
0.97;-15.45;-7.34;-56.57;-57.39;174.63;1
1.67;-16.1;-6.4;-30.79;-11.33;180.81;1
3.25;-15;-8.29;-19.73;-5.22;183.48;1
3.37;-13.8;-8.74;-23.14;-9.07;182.43;1
2.2;-12.64;-8.43;-24.82;-24.9;177.2;1
2.15;-12;-8.28;-23.18;-37.36;170.21;1
0.67;-11.61;-8.23;-18.05;-53.23;161.37;1
-0.55;-10.95;-8.25;-7.9;-61.65;153.38;1
-1.14;-10.32;-8.72;3.56;-61.83;145.64;1
-0.43;-9.71;-9.33;12.41;-50.58;135.91;1
0.2;-8.66;-9.85;15.65;-39.61;124.6;1
1.32;-7.58;-10.32;16.56;-33.66;112.86;1
2.55;-6.82;-10.38;14.98;-28.72;96.77;1
3.92;-6.2;-10.5;12.11;-21.62;77.55;1
4.89;-5.84;-10.55;8.85;-11.71;53.97;1
5.44;-5.25;-10.86;2.34;0.88;26.28;1
5.65;-4.75;-11.09;-9.76;13.42;-4.53;1
4.38;-4.37;-11.18;-23.96;17.53;-33.67;1
3.72;-4.38;-9.95;-33.02;11.89;-58.82;1
2.55;-4.69;-7.62;-36.15;5.83;-82.85;1
0.25;-6.81;-4.36;-19.47;4.19;-107.97;1
-3.05;-7.75;-4.75;0.14;18.21;-134.69;1
-6.84;-8.85;-6.66;24.53;62.93;-162.35;1
-10.95;-9.69;-10.05;51.95;115.29;-179.05;1
-12.53;-9.51;-14.15;64.55;114.73;-172.76;1
-14.27;-8.6;-22.92;30.59;88.28;-141.04;1
-17.19;-7.49;-24.24;-56.61;76.57;-79.54;1
-16.37;-6.05;-15.84;-115.95;64.64;-18.74;1
-13.48;-6.36;-6.15;-118.89;23.46;15.48;1
-6.93;-12;-1.34;-103.57;-81.96;6.86;1
-0.98;-19.55;-1.15;-45.48;-162.74;-14.43;1
3.7;-19.55;-3.72;26.85;-147.78;-17.07;1
1.31;-8.82;-10.09;7.47;-54.03;2.24;1
-3.2;-4.92;-24.25;-69.6;-49.68;32.89;1
4.75;-10.05;-5.25;-54.4;14.48;39.33;1
17.04;-11.11;-7.86;5.51;30.16;-9.5;1
17.01;-11.96;-11.83;3.08;70;-71.91;1
7.91;-14.58;-13.41;-0.04;90.58;-121.83;1
-3.14;-14.56;-13.3;-0.73;72.84;-131.66;1
-8.03;-11.39;-11.93;-0.99;25.86;-113.96;1
-8.71;-10.31;-10.88;3.14;-13.29;-91.85;1
-4.61;-10.47;-12.23;3.33;-48.74;-82.41;1
-0.3;-9.74;-11.99;2.7;-59.52;-79.24;1
3.81;-8.94;-11.65;3.87;-39.88;-90.41;1
4.27;-9.32;-12.01;4.01;-12.52;-106.53;1
4.04;-10;-12.67;2.57;12.42;-117.17;1
1.81;-9.92;-13.39;-3.46;19.69;-124.24;1
-0.6;-10.25;-13.02;-11.59;24.49;-124.2;1
-1.75;-10.06;-11.82;-14.19;25.54;-118.56;1
-1.88;-9.73;-10.96;-11.45;22.58;-112.84;1
-1.05;-9.93;-10.87;-8.2;23.63;-109.5;1
0.06;-10.42;-11.14;-6.77;27.23;-110.24;1
0.97;-11.21;-11.1;-6;34.87;-114.17;1
1.26;-11.94;-10.64;-6.33;41.25;-118.13;1
0.7;-11.88;-10.49;-3.93;48.65;-121.3;1
0.06;-11.47;-10.38;-2.42;57.24;-119.85;1
-0.34;-10.92;-10.79;1.76;57.14;-118.59;1
-0.85;-10.15;-11.99;4.5;54.64;-117.51;1
-1.27;-9.32;-12.07;4.25;58.97;-114.97;1
-2.11;-8.67;-11.15;7.94;72.37;-113.79;1
-4.59;-8.1;-10.48;12.14;92.58;-107.51;1
-6.82;-9.26;-10.52;23.23;100.64;-90.21;1
-7.9;-9.7;-12.37;38.69;115.24;-66.24;1
-8.32;-7.88;-13.15;42.2;95.87;-39.3;1
-10.43;-6.86;-11.57;44.89;71.11;-9.95;1
-11.35;-5.93;-11.22;55.33;72.13;20.03;1
-8.96;-5.49;-12.83;58.2;71.41;46.22;1
-6.39;-6.09;-14.02;49.64;50.99;63.19;1
-6.09;-8.54;-13.7;39.84;29.85;80.44;1
-7.23;-11.27;-12.27;34.14;18.56;101.61;1
-8.99;-12.17;-9.95;33.14;23.32;125.84;1
-7.73;-11.66;-10.06;32.34;16.46;152.28;1
-4.96;-9.97;-11.31;15.21;-8.23;167.87;1
-4.2;-10.96;-12.77;-9.97;-52.69;183.02;1
-3.08;-12.54;-13.55;-30.66;-91.83;192.28;1
-2.33;-15.26;-13.69;-50.56;-109.16;192.53;1
-1.86;-17.85;-12.95;-61.56;-109.01;188.44;1
-0.59;-18.07;-11.03;-57.85;-100.8;181.36;1
0.53;-16.82;-9.45;-46.6;-79.76;176.25;1
0.74;-16.49;-7.83;-34.85;-31.37;179.05;1
1.19;-16.6;-8.02;-20.03;-2.09;185.41;1
1.55;-15.44;-8.98;-14.64;-14.91;190.04;1
0.76;-13.97;-8.96;-14.28;-29.98;192.76;1
0.03;-12.85;-8.91;-12.48;-44.81;192.18;1
-0.1;-12.04;-8.79;-9.34;-53.21;187.38;1
-0.16;-11.96;-9.25;-9.28;-51.2;185.03;1
0.27;-11.91;-9.34;-8.67;-45.04;181.24;1
0.42;-11.57;-9.18;-4.13;-34.36;173.96;1
0.95;-10.82;-9.07;4.02;-23.35;163.22;1
1.78;-9.78;-9.39;12.1;-12.27;148.89;1
1.88;-8.39;-10.02;16.34;-6.95;132.86;1
2.29;-7.17;-10.33;16.05;-0.76;114.67;1
2.61;-6.67;-10.33;10.95;7.05;94.06;1
3.41;-6.12;-10.47;6.05;16.82;72.1;1
4.47;-5.15;-10.98;-1.82;31.57;44.99;1
4.93;-4.13;-11.1;-12.86;47.32;9.25;1
3.07;-3.05;-9.19;-18.56;27.83;-24.23;1
1.8;-3.83;-7.95;-13.61;11.96;-52.56;1
0.19;-4.43;-8.49;-5.66;27.71;-76.78;1
-0.87;-5.18;-10.31;1.63;68.87;-100.26;1
-2.75;-6.74;-11.66;13.4;112.18;-123.21;1
-4.01;-8.62;-11.93;20.15;112.39;-144.74;1
-4.85;-11.83;-10.2;25;73.53;-162.53;1
-7.56;-14.65;-10.85;44.89;67.57;-169.31;1
-11.78;-11.52;-17.27;39.48;71.52;-138.21;1
-14.12;-5.36;-21.61;-30.95;35.27;-81.28;1
-12.11;-0.89;-18.56;-109.88;-17.81;-35.07;1
-7.14;1.12;-9.76;-150.68;-115.76;-19.99;1
0.56;-5.79;6.32;-103.91;-186.88;-44.08;1
4.2;-19.02;7.41;5.15;-39.08;-90.88;1
-5.66;-19.55;-5;89.86;51.06;-75.03;1
-17.32;-4.49;-29.68;1.95;-86.13;-14.4;1
-17.04;-5.55;-18.34;-131.57;-75.22;92.42;1
6.8;-12.79;8.42;-4.54;-56.33;75.41;1
19.09;-8.38;-7.91;55.24;-18.83;-2.5;1
15.62;-5.49;-17.56;25.13;44.78;-59.22;1
6.03;-6.62;-18.95;-19.86;82.34;-90.14;1
-4.29;-13.25;-13.26;-34.62;50.89;-104.93;1
-10.1;-17;-7.54;-5.78;-7.26;-103.27;1
-10.81;-11.19;-11.21;11.52;-60.65;-82.43;1
-7.39;-9.44;-12.72;-6.42;-86.81;-58.97;1
0.14;-11.48;-9.66;-0.45;-76.46;-57.66;1
5.79;-11.81;-9.91;15.24;-48.16;-80.24;1
7.55;-11.59;-12.79;12.79;-18.27;-105.03;1
4.98;-13.41;-13.13;5.6;6.37;-124.66;1
1.8;-14.11;-12.52;-0.28;28.26;-136.43;1
-1.69;-13.75;-11.76;-1.49;34.14;-139.05;1
-4.62;-12.62;-11.44;-2.52;27.74;-132.37;1
-5.33;-12.22;-10.78;-1.64;12.22;-126.11;1
-4.25;-12.69;-10.58;0.38;-3.3;-123.91;1
-2.79;-12.78;-10.81;0.66;-17.42;-124.75;1
-2.01;-12.86;-10.81;1.79;-21.13;-127.53;1
-2.31;-12.43;-10.65;4.08;-16.43;-130;1
-3.78;-11.38;-10.6;9.14;-1.7;-130.03;1
-5.01;-9.78;-11.56;17.06;19.6;-129.05;1
-6.91;-9.25;-11.81;17.37;37.17;-122.78;1
-6.87;-8.93;-11.81;15.33;49.19;-108.15;1
-7.44;-7.08;-10.64;19.55;65.42;-94.49;1
-10.56;-5.06;-10.73;26.82;76.78;-73.51;1
-12.63;-2.86;-10.88;33.89;68.47;-41.85;1
-11.91;-1.92;-9.97;39.84;40.02;-5.34;1
-9.71;-3.46;-9.37;43.34;-1.21;27.33;1
-8.47;-6.29;-9.83;46.21;-28;57.83;1
-8.08;-8.35;-12.13;38.85;-41.17;85.89;1
-8.28;-10.25;-14.57;25.32;-61.28;110.92;1
-7.14;-10.01;-14.77;11.19;-77.88;128.71;1
-7.01;-9.72;-13.01;-1.4;-93.75;139.25;1
-6.6;-10.18;-13.36;-14;-102.44;150.05;1
-4.9;-10.82;-13.66;-25.65;-103.14;161.86;1
-3.07;-12.56;-13.09;-31.22;-92.55;173.94;1
-1.44;-15.17;-11.36;-26.21;-66.72;183.39;1
0.39;-16.95;-9.02;-10.06;-23.42;187.25;1
1.89;-16.96;-8.87;6.21;-7.52;189.43;1
3.07;-15.71;-9.58;8.25;-7.24;190.14;1
2.99;-14.66;-9.97;3.89;-6.27;189.5;1
2.15;-14.03;-10;-0.53;-5.17;186.66;1
0.88;-13.38;-9.7;-2.68;-7.55;179.47;1
-1.14;-13.14;-9.47;-2.37;-9.96;174.42;1
-0.9;-13.57;-9.5;-2.21;-1.94;173.57;1
-1.84;-13.63;-9.25;2.53;-0.62;168.37;1
-1.23;-13.16;-9.1;10.17;-2.52;161.12;1
-0.5;-12.44;-9.19;16.81;-7.65;148.78;1
0.15;-11.36;-9.6;21.21;-14.13;133.28;1
0.86;-9.75;-10.2;20.01;-17.24;116.92;1
1.09;-8.61;-10.41;13.71;-22.3;100.37;1
2.41;-8.02;-10.42;8.72;-23.13;81.42;1
3.69;-7.78;-10.53;5.46;-17.88;55.19;1
4.61;-7.11;-11.1;-0.9;-4.68;22.08;1
5.45;-6.26;-11.17;-12.86;13.33;-14.19;1
4.98;-5.41;-9.68;-21.11;11.24;-46.52;1
4.25;-5.3;-8.67;-19.4;6.82;-72.76;1
3.4;-5.65;-8.72;-18.63;28.8;-99.92;1
1.83;-6.19;-9.16;-15.06;74.49;-126.01;1
-1.21;-6.61;-7.86;2.99;106.2;-152.08;1
-4.59;-7.41;-7.43;26.45;129.53;-168.24;1
-7.29;-9.22;-7.09;54.01;146.79;-173.63;1
-9.35;-11.06;-11.05;84.29;153.15;-161.67;1
-11.29;-9.27;-20.62;73.11;141.16;-127.56;1
-12.59;-4.29;-27.46;-7.57;108.38;-63.72;1
-12.26;1.49;-25.03;-115.81;64.65;-7.79;1
-6.41;3.14;-13.93;-185.82;-63.44;-0.06;1
1.38;-4.32;6.63;-149.93;-175.54;-37.01;1
3.72;-19.55;9.54;2.06;-64.2;-92.9;1
-4.75;-19.55;-1.71;103.95;32.52;-79.23;1
-12.72;-4.88;-29.68;41.06;-80.43;-34.27;1
-17.59;-4.53;-27.59;-148.33;-53.43;64.14;1
3.47;-16.03;8.2;-51.31;-75.46;75.01;1
16.91;-12.01;-4.44;44.29;-41.99;-2.56;1
15.17;-7.05;-15.5;29.11;28.64;-57.05;1
7.73;-7.95;-16.03;-5.88;71.8;-80.23;1
0.64;-13.47;-12.41;-12.29;72.64;-91.38;1
-4.09;-15.2;-12.11;2.35;39.99;-99.22;1
-6.31;-11.89;-12.42;6.92;-11.94;-96.66;1
-8.14;-10.24;-12.87;0.12;-62.72;-83.04;1
-4.75;-9.83;-11.53;-2.8;-69.87;-67.8;1
1.4;-9.7;-10.24;5.25;-48.3;-68.82;1
5.24;-10.6;-12.26;9.49;-19.11;-82.53;1
5.33;-11.71;-13.65;3.1;3.61;-101.27;1
2.65;-12.4;-13.01;-3.27;20.06;-115.8;1
-0.22;-12.22;-12.09;-4.93;31.45;-119.71;1
-2.64;-11.41;-11.48;-3.73;33.53;-116.11;1
-4.2;-11.19;-11.05;-6.21;26.55;-108.85;1
-4.29;-12.03;-10.07;-5.34;17.83;-102.81;1
-3.5;-12.14;-10.79;-1.03;7.22;-100.76;1
-3.17;-12.08;-11.28;-2.31;-0.49;-101.54;1
-3.75;-12.09;-11.28;-2.2;-4.34;-100.38;1
-4.33;-11.39;-11.15;-0.99;-3.68;-100.52;1
-4.72;-10.59;-10.7;1.33;0.08;-103.09;1
-5.43;-9.77;-10.54;3.93;6.86;-103.7;1
-5.93;-7.85;-10.34;5.98;20.75;-99.35;1
-8.07;-6.28;-10;7.53;41.77;-82.45;1
-10.92;-5.39;-9.38;18.56;61.68;-49.48;1
-12.47;-4.57;-8.89;39.77;62.7;-12.08;1
-11.03;-4.31;-8.22;57.46;53.07;24.7;1
-9.08;-4.83;-7.07;73.76;42.22;49.1;1
-7.64;-4.89;-7.74;88.73;30.05;65.63;1
-6.94;-4.93;-11.34;88.14;17.7;87.68;1
-7.3;-7.45;-13.73;71.76;24.69;116.85;1
-7.99;-10.06;-14.88;52.66;29.15;146.16;1
-8.88;-11.1;-13.83;44.47;9.77;169.6;1
-8.71;-11.56;-14.02;32.46;-30.05;187.15;1
-6.03;-12.46;-15.16;7.64;-64.59;192.92;1
-2.77;-13.2;-15.72;-23.75;-78.65;188.12;1
-1.36;-14.1;-13.78;-45.78;-79.1;181.23;1
-0.76;-15.98;-9.51;-41.82;-45.26;175.92;1
0.27;-17.71;-8.98;-13.68;-28.18;178.6;1
1.21;-16.41;-10.53;-1.79;-40.94;180.73;1
1.02;-14.53;-11.1;-9.66;-28.23;183.06;1
0.21;-13.55;-10.93;-25.75;-4.65;184.15;1
-0.42;-13.34;-9.68;-36.65;-2.23;181.47;1
-1.69;-12.95;-8.11;-34.08;-24.09;172.18;1
-1.86;-12.72;-7.68;-24.92;-44.11;167.89;1
-2.32;-12.69;-7.63;-11.71;-60.31;163.74;1
-1.94;-12.32;-8.01;1.58;-72.24;155.1;1
-1.16;-11.83;-8.73;9.3;-72.85;144.37;1
-0.45;-11.29;-9.53;9.92;-67.42;131.11;1
0.2;-11.14;-9.85;8.55;-57.04;117.45;1
0.72;-10.76;-9.94;9.06;-45.34;102.41;1
1.62;-9.99;-10.29;7.06;-34.83;86.3;1
2.9;-9.39;-10.71;1.88;-24.41;64.93;1
3.52;-8.77;-10.07;-1.28;-15.13;39.12;1
3.63;-7.95;-9.18;1.6;0.64;13.04;1
3.76;-6.71;-9.85;2.46;24.59;-16;1
2.76;-4.92;-10.12;-6.41;42.72;-40.65;1
1.44;-4.35;-8.25;-11.54;33.68;-62.62;1
-0.08;-4.19;-6.9;-13.34;20.18;-86.67;1
-1.23;-4.51;-6.54;-15.19;25.76;-107.11;1
-3.34;-5.89;-7.05;-9.12;49.33;-126.11;1
-6.31;-7.45;-8.46;4.46;85.32;-141.91;1
-8.44;-8.81;-9.36;26.77;103.24;-149.02;1
-9.08;-9.12;-11.79;46.7;119.61;-143.03;1
-9.47;-9.06;-15.92;43.82;146.08;-126.35;1
-9.38;-8.09;-19.6;13.34;166.69;-96.42;1
-7.86;-5.27;-20.39;-34.76;152.08;-64.04;1
-4.76;-1.28;-17.2;-89.39;59.82;-49.39;1
-0.63;-0.29;-10.68;-127.78;-87.54;-57.1;1
1.59;-6.38;-0.79;-113.85;-154.54;-84.83;1
-2.22;-19.55;3.68;-27.24;-67.33;-113;1
-12.01;-19.55;-3.01;62.1;1.96;-87.4;1
-18.97;-7.69;-26.8;19.11;-106.36;-14.18;1
-15.13;-2.66;-23.47;-113.66;-88.71;73.87;1
8.68;-12.01;3.9;-47.75;-102.8;71.21;1
19.52;-11.32;-4.43;25.3;-48.1;-4.16;1
18.06;-8.41;-14.14;29.66;65.11;-70.45;1
7.34;-7.95;-16.78;1.4;125.13;-96.97;1
-2.4;-11.31;-13.54;-21.73;114.31;-99.54;1
-9.14;-14.8;-8.97;-1.37;79.95;-96.33;1
-10.61;-11.84;-11.4;19.03;23.88;-83.36;1
-9.05;-9.15;-14.51;3.47;-39.21;-64.72;1
-3.96;-9.76;-12.29;-7.86;-52.36;-54.66;1
1.39;-10.28;-9.99;0.53;-33.35;-63.53;1
4.55;-10.24;-11.33;3.83;-13.97;-84.37;1
3.77;-11.21;-12.65;-0.38;0.8;-101.71;1
2.07;-11.33;-12.96;-7.01;11.61;-115.15;1
0.13;-11.82;-12.4;-11.48;17.35;-123.87;1
-1.59;-12.16;-11.48;-10.67;10.76;-126.85;1
-2.79;-11.82;-10.8;-8.97;1.88;-124.32;1
-2.56;-11.78;-10.63;-9.29;-7.14;-122.56;1
-1.55;-12.19;-10.96;-8.5;-9.18;-122.74;1
-0.29;-12.06;-10.73;-10.13;-4.55;-123.64;1
-0.2;-12.53;-10.47;-8.11;8.15;-126.69;1
-1.23;-12.7;-10.66;-4.11;12.87;-128.9;1
-2.55;-12.44;-10.47;0.18;12.85;-127.21;1
-3.73;-11.85;-10.88;5.15;10.59;-124.3;1
-4.71;-10.79;-11.04;8.42;15.81;-120.06;1
-5.72;-9.43;-11.6;10.47;29.45;-115.89;1
-6.9;-8.95;-11.67;9.36;49.77;-107.06;1
-8.5;-8.76;-10.91;7.48;63.32;-93.63;1
-9.06;-7.38;-9.98;12.43;62.24;-72.72;1
-11.12;-5.52;-9.63;28.31;53.12;-45.37;1
-13.38;-3.94;-9.7;43.01;33.21;-11.96;1
-13.03;-3.56;-9.12;50.05;1.97;23.63;1
-10.03;-4.44;-7.38;60.75;-19.91;51.43;1
-7.25;-5.94;-8.53;72.34;-25.47;76.07;1
-6.1;-7.04;-12.41;63.75;-26.52;98.85;1
-7.12;-9.67;-14.88;45.21;-18.54;115.94;1
-7.53;-10.35;-14.88;36.47;-19.28;135.47;1
-6.99;-10.1;-14.06;32.01;-40.36;158.63;1
-5.53;-10.66;-14.1;19.6;-63.05;178.44;1
-3.16;-11.9;-14.21;-1.86;-70.33;188.74;1
-1.38;-13.47;-13.04;-19.83;-80.46;190.34;1
-0.7;-15.07;-10.52;-23.89;-73.04;188.8;1
-0.32;-16.81;-7.66;-5.63;-26.21;190.02;1
1.05;-16.66;-8.82;9.89;-12.78;193.49;1
1.52;-15.66;-10.04;12.85;-11.86;195.49;1
1.38;-14.81;-11.17;7.2;-3.44;196.58;1
0.65;-14.02;-11.29;-3.31;0.9;196.08;1
-0.15;-13.55;-10.24;-9.76;-4.18;192.18;1
-0.92;-13.12;-9.17;-8.43;-11.81;184.8;1
-2.3;-12.84;-8.66;-3.47;-20.59;179.13;1
-2.47;-13.09;-8.54;2.43;-24.6;177.45;1
-2.36;-13.3;-8.65;8.82;-25.85;174.2;1
-1.46;-13.22;-9.18;13.29;-25.36;167.63;1
-0.14;-12.75;-9.75;15.18;-19.25;155.79;1
0.66;-12.1;-10.2;15.66;-12.12;140.83;1
1.57;-11.01;-10.38;14.33;-7.37;122.96;1
2.01;-9.8;-10.47;10.12;-4.82;102.65;1
2.27;-8.63;-10.16;5.63;-4.6;79.46;1
2.4;-7.67;-9.13;4.1;-4.74;54.42;1
2.17;-6.73;-8.45;5.12;-5.59;28.48;1
2.16;-5.65;-8.64;2.27;-2.53;1.14;1
2.34;-4.76;-9.13;-6.44;0.64;-26.55;1
0.9;-4.34;-8.03;-9.45;-8.65;-49.5;1
-0.81;-4.31;-7.5;-5.51;-16.1;-68.81;1
-1.99;-4.31;-8.62;-2.35;6.8;-82.45;1
-2.2;-4.42;-8.45;-5.77;47.78;-95.43;1
-3.06;-5.9;-7.58;-6.66;82.72;-119.36;1
-6.05;-7.24;-8.3;-3.02;105.41;-144.05;1
-8.9;-8.61;-11.09;17.69;116.58;-156.59;1
-11.23;-7.23;-15.56;35.76;105.28;-143.31;1
-11.97;-3.67;-19.31;2.59;52.09;-99.64;1
-10.94;-0.39;-18.92;-79.77;-4.46;-48.76;1
-9.16;-1.44;-8.48;-134.05;-61.64;-12.95;1
-4.6;-11.45;5.97;-75.38;-52.51;-5.09;1
-1.33;-19.55;-0.42;28.09;-24.7;-27.5;1
-0.61;-19.47;-22.9;18.56;-69.99;-30.99;1
0.98;-9.33;-21.24;-37.51;-49.42;-9.4;1
4.11;-8.28;-10.93;-50.15;-28.62;-8.96;1
7.57;-8.96;-6.95;-23.69;-14.52;-37.39;1
6.32;-9.43;-9.77;-11.81;-1.11;-71.54;1
0.05;-10.8;-12.91;-17.74;23.2;-88.56;1
-3.98;-13.35;-12.19;-21.86;29.15;-82.78;1
-3.44;-13.91;-11.29;-14.44;7.64;-70.47;1
-1.15;-11.94;-11.52;-7.5;2.87;-66.14;1
-0.9;-10.72;-11.5;-8.14;7.59;-72.08;1
-0.69;-10.81;-12.05;-13.21;10.52;-79.92;1
1.28;-11.24;-11.34;-12.57;20.28;-89.45;1
1.64;-11.34;-11.89;-7.71;28.99;-104.86;1
-0.5;-11.54;-13.04;-8.53;24.5;-117.99;1
-3.19;-11.54;-13.19;-11.95;9.76;-123.32;1
-4.58;-11.02;-12.36;-15.56;-5.48;-119.72;1
-3.55;-10.61;-11;-15.52;-15.7;-113.21;1
-1.8;-10.91;-10.94;-12.11;-20.7;-112.79;1
0.22;-11.51;-11.9;-13.88;-19.11;-119.59;1
0.98;-11.9;-11.52;-17.8;-12.5;-128.44;1
0.69;-12.3;-11.05;-16.95;-1.13;-136.25;1
-0.64;-12.31;-11.05;-17.11;8.12;-138.63;1
-2.25;-12.52;-10.91;-17.25;10.19;-134.77;1
-3.17;-12.26;-10.38;-14.75;6.98;-128.63;1
-3.53;-11.91;-9.93;-11.13;-0.08;-122.04;1
-4.52;-11.98;-10.27;-9.05;-4.38;-114.93;1
-5.91;-11.96;-10.34;-9.88;-0.11;-105.25;1
-6.24;-10.48;-10.44;-5.52;6.66;-100.04;1
-6.52;-9.6;-10.29;-3.35;16.96;-94.46;1
-6.69;-8.55;-9.58;1.14;38.69;-85.6;1
-9.73;-7.08;-9.16;11.09;59.65;-67.3;1
-12.99;-4.9;-8.24;26.68;65.8;-39.11;1
-13.77;-3.1;-8.09;45.62;46.12;-5.09;1
-12.32;-2.89;-8.87;55.64;16.29;30.59;1
-10.39;-4.35;-7.67;68.58;7.92;61.37;1
-8.38;-5.9;-9.85;78.05;-0.17;84.32;1
-7.87;-7.76;-13.23;67.63;-15.55;107.92;1
-8.7;-10.24;-13.61;59.5;-14.94;136.26;1
-7.72;-10.79;-12.59;57.9;-11.38;165.87;1
-6;-11.16;-13.46;50.17;-19.63;186.65;1
-3.57;-11.8;-14.1;32.2;-27.42;196.99;1
-1.24;-12.45;-13.58;10.82;-18.17;200.02;1
-0.43;-13.76;-11.24;2.34;16.37;199.04;1
0.1;-15.99;-9.81;6.06;32.35;201.15;1
0.06;-17.88;-9.79;14.12;19.38;205.91;1
-0.17;-16.62;-11.21;15.98;-3.69;209.19;1
-1.16;-15.24;-12.23;2.38;0.61;216.68;1
-2.02;-14.38;-11.26;-12.91;12.82;220.96;1
-2.02;-13.24;-9.57;-16.76;3.21;213.31;1
-1.84;-12.24;-8.85;-12.92;-14.23;205.13;1
-2.38;-12.09;-8.62;-9.86;-24.81;197.96;1
-2.13;-12.06;-8.62;-5.21;-26.98;191.89;1
-2.01;-11.9;-9.13;0.92;-28.96;185.12;1
-2.55;-11.25;-9.44;4.84;-34.55;175.83;1
-1.96;-10.93;-9.39;5.05;-37.2;167.21;1
-0.82;-10.96;-9.6;6.71;-34.32;154.01;1
-0.31;-10.88;-9.13;13.11;-28.06;135.77;1
-0.05;-11.11;-8.69;22.75;-27.36;115.01;1
-0.32;-10.48;-9.2;27.95;-25.51;95.25;1
0.02;-9.17;-9.88;24.18;-18.23;75.41;1
-0.04;-8.25;-9.6;16.26;-20.4;54.07;1
0.75;-7.55;-9.05;11.73;-28.33;33.6;1
1.28;-7.02;-8.97;9.77;-33.81;10.73;1
1.86;-6.01;-10.04;6.3;-31.08;-16.99;1
2;-4.96;-9.91;-2.02;-24.62;-47.72;1
1.57;-4.99;-8.03;0.78;-25.49;-75.57;1
2.33;-4.22;-9.04;5.54;-9.16;-99.08;1
3.95;-3.83;-11.28;-4.47;57.05;-121.93;1
3.46;-4.22;-10.24;-21.84;126.9;-147.46;1
-0.99;-5.44;-7.19;-22.67;146.05;-169.67;1
-5.88;-6.6;-7.49;4.14;154.22;-180.59;1
-8.67;-7.35;-11.34;33.21;178.7;-176.38;1
-10.72;-6.37;-17.07;20.55;184.4;-156.56;1
-12.13;-4.86;-23.3;-41.11;138.64;-114.78;1
-10.35;-3.77;-19.37;-98.78;94.86;-66.4;1
-8.05;-6.78;-3.54;-91.11;16.58;-54.89;1
-10.32;-15.12;-0.3;-27.25;-21.65;-76.07;1
-15.81;-19.55;-11.02;-0.18;-33.61;-64.53;1
-16.06;-14.82;-13.35;-9.53;-96.91;10.74;1
-2.6;-7.17;-9.82;-16.03;-93.3;34.25;1
9.19;-6.66;-7.1;0.55;-49.92;6.8;1
15.45;-7.08;-9.05;10.51;-26.7;-40.43;1
10.33;-8.52;-11.6;6.41;35.81;-88.6;1
0.97;-11.96;-12.12;1.06;77.26;-110.96;1
-5.96;-15.05;-11.03;6.4;56.58;-110.39;1
-7.66;-13.64;-10.29;20.38;19.14;-90.74;1
-6.32;-10.63;-12.56;19.85;-5.84;-71.82;1
-4.12;-9.74;-13.46;4.78;-10.12;-65.23;1
-0.54;-10.94;-12.24;-2.73;-14.74;-77.68;1
1.98;-11.28;-11.54;0.89;-17.55;-96.26;1
2.43;-10.92;-12.72;0.04;-11.19;-114.95;1
0.85;-10.95;-12.96;-8.26;-3.91;-129.79;1
-1.86;-12.15;-12.42;-11.4;-5.92;-133.65;1
-3.05;-12.15;-11.71;-11.53;-11.64;-131.14;1
-2.45;-11.96;-11.57;-11.34;-19.46;-129.12;1
-1.2;-11.93;-11.3;-13.02;-22.67;-128.35;1
-0.14;-12.42;-11.37;-13.4;-20.23;-130.37;1
0.61;-12.29;-11.21;-14.89;-15.77;-134.84;1
0.28;-12.3;-10.86;-16.95;-8.03;-138.55;1
-1.41;-13.17;-10.77;-15.29;-2.47;-139.26;1
-3.31;-12.7;-10.7;-14.6;-0.13;-135.47;1
-5.35;-13.09;-10.07;-12.6;-7.3;-128.02;1
-5.87;-12.05;-9.67;-6.38;-8.55;-117.81;1
-5.63;-10.6;-10.45;-0.26;-2.69;-113.68;1
-5.64;-10.27;-10.76;-1.57;14.29;-106.75;1
-6.5;-9.88;-9.89;1.84;39.58;-97.24;1
-9.06;-7.95;-8.47;13.26;62.11;-83.02;1
-12.19;-5.03;-9.14;23.23;60.37;-60.06;1
-13.08;-3.33;-8.7;35.18;46.79;-29.66;1
-11.57;-2.83;-9.08;45.5;20.79;2.96;1
-10.11;-3.97;-9.07;53.48;1.51;32.34;1
-8.8;-5.96;-9.48;62.7;3.19;57.47;1
-8.91;-7.97;-12.82;57.71;-7.23;84.28;1
-9.18;-8.77;-14.7;46.69;-28.97;109.31;1
-8.86;-9.51;-13.08;34.78;-43.93;139.69;1
-7.86;-10.68;-12.68;28.3;-60.68;162.08;1
-5.65;-11.73;-13.4;16.62;-74.56;178.7;1
-2.4;-12.5;-13.49;3.64;-79.66;188.13;1
-0.28;-13.84;-12.63;-7.03;-62.15;191.89;1
0.89;-15.83;-10.58;-5.66;-23.51;192.25;1
2.17;-17.16;-9.48;5.07;-0.55;192.09;1
2.3;-16.88;-9.49;13.77;4.54;195.12;1
2.34;-15.62;-10.47;12.76;-0.42;199.75;1
1.6;-14.38;-11.35;2.32;-3.65;201.23;1
0.7;-13.53;-10.86;-6.6;2.47;197.46;1
0.02;-12.91;-9.95;-9.15;10.82;188.21;1
-1.25;-12.62;-9.19;-7.66;10.15;177.92;1
-1.75;-12.73;-8.93;-3.52;4.96;171.02;1
-2.18;-12.62;-8.91;2.18;0.5;165.4;1
-2.37;-12.29;-9.1;8.57;-9.46;160.54;1
-1.89;-11.79;-9.45;14.83;-16.07;156.12;1
-0.3;-11;-10.05;15.47;-15.63;146.49;1
0.23;-9.91;-10.7;10.69;-18.15;131.06;1
1.3;-8.94;-10.5;4.98;-19.38;113.02;1
2.09;-8.16;-9.82;3.05;-22.33;92.11;1
2.57;-7.43;-9.56;3.86;-21.65;70.21;1
2.88;-6.49;-9.39;4.67;-14.68;47.31;1
3.14;-5.38;-9.32;4.3;-3.6;23.37;1
2.34;-4.42;-9.52;0.59;3.89;-1.44;1
1.67;-3.7;-9.72;-4.99;7.74;-27.32;1
0.29;-3.44;-8.39;-9.47;3.25;-49.51;1
-1.04;-3.98;-7.24;-2.86;1;-65.08;1
-1.64;-4.42;-8.59;-0.5;15.58;-77.94;1
-0.73;-5.7;-10.07;-3.05;55.94;-97.97;1
-2.03;-6.51;-10.42;-2.02;90.49;-117.03;1
-4.66;-7.41;-10.36;5.92;102.63;-128.43;1
-6.67;-8.11;-11.83;16.85;130.07;-134.17;1
-8.27;-9.11;-14.63;23.23;166.69;-136.37;1
-9.59;-8.41;-17.25;10.24;158.9;-123.98;1
-9.16;-5.7;-18.43;-32.21;107.92;-95.98;1
-7.59;-3.02;-15.9;-77.6;40.9;-65.59;1
-5.25;-2.4;-11.08;-103.61;-54.91;-57.94;1
-4.5;-8.23;-3.2;-96.62;-121.94;-71.53;1
-10.1;-19.55;0.9;-35.23;-77.17;-75.47;1
-18.35;-19.55;-6.84;28.04;-61.97;-8.65;1
-13.5;-6.45;-23.21;-30.25;-113.24;68.93;1
1.42;-4.84;-10.1;-62.02;-65.15;78.6;1
14.62;-7.76;-2.45;1.18;-47.97;35.29;1
19.52;-7.01;-9.24;18.63;12.12;-25.91;1
13.41;-6.77;-13.77;10.73;85.23;-79.99;1
1.99;-9.05;-15.33;-7.09;116.07;-104.39;1
-8.05;-14.19;-12.82;-19.29;80.67;-107.48;1
-11.83;-15.13;-8.6;2.59;29.77;-90.94;1
-10.22;-10.73;-10.66;17.34;-20.15;-61.94;1
-6.44;-9.15;-13.97;2.52;-42.03;-44.25;1
-1.16;-10.33;-11.48;-1.04;-42.62;-47.12;1
3.06;-10.07;-10.25;9.14;-28.66;-61.02;1
4.34;-9.8;-12.13;14.27;-10.44;-82.89;1
2.93;-10.22;-13.83;7.58;4.35;-101.63;1
0.28;-11.53;-13.83;-5.78;3.36;-111.33;1
-0.67;-12.49;-12.64;-8.21;7;-118.72;1
-1.82;-12.23;-11.76;-7.76;6.83;-122.69;1
-2.95;-12.11;-11.62;-9.51;-1.39;-123.32;1
-3.11;-12.33;-11.53;-9.89;-6.56;-120.1;1
-2.25;-12.52;-11.39;-10.76;-12.66;-119.85;1
-1.13;-12.54;-10.93;-12.02;-14.2;-121.75;1
-0.99;-12.72;-10.86;-11.77;-14.59;-124.82;1
-1.6;-12.59;-10.7;-11.76;-13.17;-126.04;1
-2.45;-12.33;-10.14;-9.57;-11.03;-125;1
-3.43;-11.93;-10.29;-5.4;-13.59;-121.8;1
-4.71;-11.62;-10.55;-2.44;-14.41;-117.74;1
-5.23;-11.07;-10.92;0.02;-11.65;-110.55;1
-5.1;-10.39;-11.23;1.21;-5.46;-106.55;1
-4.91;-9.91;-11.36;-0.44;6.09;-101.08;1
-5.62;-8.99;-10.52;0.29;26.14;-92.37;1
-7.22;-7.72;-8.78;8.86;52.28;-80.85;1
-8.76;-5.61;-9.02;22.72;55.38;-62.88;1
-9.28;-4.28;-8.27;35.56;45.49;-37.61;1
-8.71;-3.81;-8.85;45.72;24.01;-6.23;1
-8.16;-4.43;-9.26;54.5;4.14;19.5;1
-7.73;-5.79;-10.2;63.01;-1.81;44.71;1
-8.33;-7.61;-12.55;62.07;-10.31;69.99;1
-8.96;-9.11;-13.36;54.5;-22.01;94.8;1
-8.29;-9.68;-13.57;45.28;-31.33;122.88;1
-6.66;-9.47;-13.8;33.9;-46.24;146.4;1
-4.63;-9.81;-14.01;18.4;-63.58;166.56;1
-1.96;-10.33;-13.25;6.6;-61.93;179.37;1
-0.41;-11.94;-11.97;0.21;-33.97;185.61;1
-0.07;-14.2;-10.47;2.56;10.38;190.76;1
0.39;-16.34;-10.03;10.54;39.78;194.05;1
0.8;-17;-10.18;16.56;43.66;197.72;1
0.82;-15.72;-10.74;15.4;34.7;198.7;1
0.15;-14.94;-11.42;4.08;29.64;200.91;1
