acc_x;acc_y;acc_z;gyro_x;gyro_y;gyro_z;label
-0.43;-10.27;-10.47;51.23;-53.36;78.67;0
-0.1;-9.27;-10.63;44.91;-59.76;72.63;0
0.76;-8.56;-10.62;38.98;-64.68;64.42;0
1.91;-7.71;-10.42;33.68;-64;54.3;0
2.39;-7.26;-10.18;28.89;-62.97;41.97;0
2.59;-6.84;-9.9;23.28;-61.63;30.18;0
2.63;-6.6;-9.82;18.21;-59.56;18.53;0
2.19;-6.58;-9.75;11.6;-54.04;7.8;0
1.56;-6.48;-9.66;1.98;-49.29;-3.4;0
0.5;-6.53;-9.19;-7.89;-52.78;-11.74;0
-0.06;-6.45;-8.65;-16.1;-67.59;-15.43;0
-0.59;-6.46;-8.41;-23.48;-90.48;-16.52;0
-0.51;-6.57;-8.88;-30.01;-103.94;-18.62;0
-0.48;-6.97;-9.33;-37.61;-97.97;-20.88;0
-0.31;-7.18;-9.58;-46.88;-71.68;-22.11;0
-0.03;-7.32;-9.44;-57.09;-26.46;-21.91;0
-0.05;-7.92;-9.1;-66.53;21.59;-22.37;0
-0.88;-8.99;-8.26;-75.08;56.82;-25.34;0
-3.06;-10.74;-6.44;-78.63;63.48;-24.69;0
-5.35;-12.54;-3.51;-70.66;41.35;-15.72;0
-6.25;-13.79;-0.8;-46.82;8.5;-1.03;0
-5.94;-12.67;0.01;-10.27;-21.7;15.23;0
-3.82;-10.34;-2.11;20.79;-35.55;26.65;0
-1.87;-8.43;-5.17;34.21;-23.36;31.73;0
-0.6;-7.67;-8.73;33.43;16.72;34.6;0
0.42;-7.7;-12.6;19.15;71.17;36.05;0
1.16;-9.14;-14.76;-10;113.96;31.69;0
2.34;-10.52;-16.09;-49.84;144.12;17.25;0
3.88;-10.59;-14.1;-83.87;139.73;-1.74;0
2.24;-10.42;-9.11;-89.25;90.5;-16.46;0
-0.74;-11.25;-6.95;-58.13;48.28;-18.28;0
-2.03;-9.7;-9.83;-37.18;30.97;-11.75;0
-0.44;-8.5;-11.63;-39.37;26.45;-12.46;0
0.52;-9.22;-12.9;-45.81;18.14;-26.99;0
0.19;-10.84;-13.42;-49.2;-2.86;-43.02;0
-1.05;-11.73;-12.38;-50.78;-31.65;-49.53;0
-1.89;-11.61;-11.08;-47.25;-48.1;-41.68;0
-1.43;-10.91;-9.79;-40.94;-45.6;-30.42;0
-0.4;-9.8;-9.99;-37.36;-29.59;-26.72;0
0.45;-9.07;-11.2;-42.48;-3.2;-31.64;0
0.65;-8.7;-12.02;-52.61;24.09;-41.44;0
0.46;-9.2;-12.22;-63.95;44.39;-48.36;0
0.35;-9.71;-11.95;-68.36;58.71;-50.43;0
0.08;-9.16;-11.73;-68.84;64.32;-46.86;0
0.15;-9.2;-11.38;-68.81;62.28;-44.19;0
0.17;-9.43;-10.8;-64.46;54.52;-44.24;0
-0.15;-9.33;-10.33;-55.58;46.88;-46.51;0
-0.49;-8.94;-10.44;-45.85;43.67;-47.11;0
-0.89;-8.89;-10.99;-40.5;41.38;-45.3;0
-1.38;-9.36;-11.59;-39.57;39.62;-42.82;0
-1.65;-9.84;-11.48;-42.68;36.35;-40.03;0
-1.84;-10.36;-10.97;-45.53;30.59;-37.56;0
-1.93;-10.32;-10.12;-45.08;25.27;-35.87;0
-1.89;-10.19;-9.56;-40.6;18.91;-34.95;0
-1.99;-10;-9.6;-32.47;12.93;-33.96;0
-2.11;-10.06;-9.89;-23.88;8.79;-31.56;0
-2.21;-9.94;-10.57;-17.82;5.04;-27.64;0
-2.06;-10.01;-11.12;-16.99;4.22;-24.21;0
-2.02;-10.06;-11.36;-19.74;7.41;-22.03;0
-1.94;-10.31;-11.09;-21.99;8.65;-19.72;0
-1.8;-10.8;-10.57;-19.89;5.93;-16.31;0
-1.58;-10.94;-9.95;-13.97;2.01;-13.14;0
-1.33;-10.96;-9.45;-8.62;1.48;-10.24;0
-1.32;-10.83;-9.07;-2.53;6.72;-7.53;0
-1.81;-10.5;-8.64;7.39;14.59;-4.01;0
-2.4;-10.43;-8.5;18.09;24.9;-0.24;0
-2.91;-10.26;-8.09;27.77;32.87;3.83;0
-3.09;-10.53;-7.63;37.85;37.04;8.38;0
-3.27;-10.77;-6.61;51.43;34.83;13.95;0
-3.17;-10.61;-5.82;68.82;18.35;20.71;0
-2.44;-10.95;-5.05;89.68;-6.45;25.3;0
-2.22;-12.17;-4.63;114.56;-23.37;30.14;0
-1.42;-13.05;-6.02;140.82;-35.36;37.27;0
-0.83;-13.35;-8.89;157.58;-43;43.58;0
-1.28;-12.56;-11.65;159.35;-39.99;49.73;0
-1.88;-12.03;-13.68;148.29;-27.64;58.91;0
-2.35;-12.16;-15.28;130.98;-32.39;68.12;0
-2.37;-12.45;-15.14;108.73;-44.01;76.15;0
-1.92;-12.35;-13.16;92.81;-61.36;82.02;0
-0.9;-12.54;-11.15;86.7;-76.92;84.15;0
0.46;-13.32;-9.92;87.96;-95.17;87.43;0
1.8;-14.17;-10.24;92.77;-98.7;87.7;0
2.36;-13.31;-10.72;89.64;-92.51;84.76;0
2.16;-11.56;-10.85;86.59;-76.56;82.32;0
2.3;-9.9;-11.59;78.72;-47.88;79.88;0
1.91;-8.44;-11.5;64.98;-21.11;74.41;0
1.74;-7.65;-11.1;49.48;-3.62;67.76;0
1.89;-7.18;-10.53;37.02;6.09;60.48;0
1.85;-7.28;-10.25;28.21;5.68;51.5;0
1.55;-7.17;-9.97;21.88;-0.04;41.64;0
1.09;-6.79;-9.97;17.15;-13.01;33.1;0
0.92;-6.23;-10.06;12.38;-29.08;25.5;0
1.28;-5.38;-10.3;8.27;-37.23;18.69;0
1.66;-5.19;-10.93;3.81;-35.06;12.09;0
1.97;-5.22;-11.61;-9.34;-27.33;0.81;0
1.74;-5.43;-11.14;-23.68;-21.53;-15.31;0
0.79;-5.91;-9.91;-30.94;-43.68;-27.79;0
-0.31;-6.54;-8.16;-32.41;-101.37;-31.92;0
-0.96;-7.08;-7.15;-32.15;-155.58;-34.45;0
-0.8;-7.63;-7.23;-37;-174.3;-37.04;0
-0.49;-8.13;-7.64;-50.01;-142.27;-42.21;0
-1.1;-8.25;-7.75;-69.31;-74.81;-40.55;0
-2.47;-9.22;-7.5;-85.72;2.1;-34.01;0
-4.08;-10.55;-5.9;-90.03;69.98;-24.25;0
-5.43;-11.77;-4.49;-83.41;104.96;-14.46;0
-5.82;-12.25;-3.72;-71.08;106.61;-4.03;0
-5.91;-12.09;-2.59;-51.3;81.32;10.16;0
-4.71;-11.23;-2.42;-22.48;53.49;25.85;0
-3.64;-9.69;-4.81;9.63;53.47;46.39;0
-1.29;-9.81;-9.3;26.98;81.04;56.65;0
2.62;-12.54;-14.63;0.23;82.4;40.37;0
6.9;-13.55;-14.95;-51.07;68.44;-3.04;0
2.43;-10.56;-8.88;-66.33;36.82;-26.3;0
-1.81;-10.7;-7.34;-45.76;31.32;-13.3;0
-1.39;-8.36;-9.89;-34.86;59.05;6.02;0
1.65;-7.02;-11.37;-42.68;58.44;4.9;0
4.38;-8.6;-13.09;-50.04;38.35;-18.91;0
3.76;-10.61;-13.98;-51.86;20.79;-47.21;0
1.2;-10.11;-14.81;-53.31;9.74;-62.52;0
-1.61;-9.43;-14.4;-62.01;9.2;-60.72;0
-3.21;-9.94;-12.12;-69.59;9.96;-50.68;0
-3.2;-10.39;-10.63;-66.45;8.35;-42.48;0
-2.18;-10.21;-10.08;-60.36;7.03;-36.94;0
-0.88;-10.14;-10.67;-59.39;12.32;-35.84;0
-0.04;-9.79;-11.32;-64.32;22.85;-37.69;0
0.7;-9.25;-11.66;-70.23;37.37;-39.74;0
0.98;-9.13;-11.31;-73.66;52.42;-41.91;0
0.92;-9.47;-10.89;-72.75;64.48;-43.82;0
0.69;-9.71;-10.47;-66;71.74;-45.4;0
0.6;-9.69;-10.47;-55.39;72.77;-45.98;0
0.41;-9.63;-11.22;-47.68;70.16;-46.29;0
0.42;-9.51;-11.7;-44.34;63.63;-47.4;0
-0.1;-9.13;-11.9;-46.2;53.09;-47.5;0
-0.59;-9.05;-11.89;-52.23;43.56;-47.28;0
-1.26;-9.53;-11.12;-56.41;39.99;-49.61;0
-2.15;-9.55;-10.57;-54.11;39.64;-53.72;0
-2.99;-10.12;-10.17;-52.66;34.56;-55.03;0
-3.16;-10.06;-9.97;-51.35;22.47;-55.31;0
-3.21;-10.23;-10.07;-44.34;8.02;-53.9;0
-3.37;-10.68;-9.79;-35.24;-1.6;-49.11;0
-3.64;-11;-9.46;-26.88;-6.85;-42.46;0
-3.83;-11.16;-9.15;-18.45;-9.84;-34.72;0
-3.76;-11.17;-8.78;-10.31;-9.05;-24.62;0
-3.18;-11.21;-8.02;-0.6;-3.11;-13.39;0
-2.52;-11.73;-7.3;18.09;8.92;-2.44;0
-2.55;-11.91;-7.53;38.26;18.93;8.09;0
-2.63;-11.66;-7.5;50.72;24.59;18.83;0
-2.36;-11.29;-6.12;61.61;29.92;27.57;0
-1.84;-10.9;-4.18;82.94;36.54;35.33;0
-1.54;-11.4;-3.75;112.39;40.39;44.2;0
-1.89;-12.12;-4.25;139.79;31.98;54.62;0
-2.35;-12.94;-5.08;159.04;18.17;65.39;0
-2.19;-13.66;-6.27;174.44;21.12;79.67;0
-1.96;-13.15;-9.15;182.47;29.28;98.61;0
-0.71;-13.09;-13.21;178.8;10.59;115.92;0
0.54;-13.07;-17.43;162.06;-14.9;122.7;0
1.05;-12.98;-18.18;128.53;-14.81;122.07;0
0.56;-13.67;-14.12;94.23;-6.77;119.06;0
-0.76;-14.54;-9.6;86;-4.75;116.74;0
-1.12;-16.16;-8.92;94.61;-2.9;116.75;0
-0.48;-15.8;-9.67;102.66;-18.33;120.18;0
0.45;-13.43;-10.85;98.5;-27.78;119.76;0
0.61;-11.21;-11.01;88.17;-42.91;113.54;0
1.39;-9.55;-11.26;77.21;-53;103.52;0
1.98;-8.49;-11.33;67.46;-53.7;89.51;0
2.04;-7.46;-11.42;58.68;-52.21;74.57;0
2.17;-6.81;-11.66;45.84;-51.27;60.98;0
2.24;-6.01;-11.65;28.79;-53.07;47.52;0
2.98;-4.96;-11.76;14.53;-52;34.67;0
3.62;-3.61;-11.84;4.91;-44.62;22.74;0
3.7;-3.18;-11.94;-8.18;-36.31;7.01;0
3.55;-2.83;-12.25;-27.02;-34.36;-16.17;0
3.08;-2.34;-10.73;-42.38;-45.51;-35.66;0
2.19;-2.85;-8.32;-47.35;-101.83;-42.47;0
0.45;-3.78;-7.62;-44.18;-176.2;-44.65;0
0.46;-5.14;-9.1;-51.13;-210.62;-48.19;0
0.42;-7.02;-9.5;-71.11;-181.03;-52.38;0
-0.77;-8.99;-8.75;-92.27;-103.75;-49.95;0
-3.6;-11.32;-7.27;-105.5;10.65;-38.39;0
-8.09;-13.48;-4.33;-103.52;119.85;-17.79;0
-10.25;-15.3;-0.06;-79.06;151.35;4.08;0
-7.9;-12.85;1.23;-38.24;114.27;18.46;0
-6.83;-10.41;-0.64;-5.94;57.97;29.59;0
-4.85;-9.22;-2.76;19.21;9.51;38.6;0
-1.93;-8.6;-8.35;36.16;-3.66;47.14;0
1.38;-10.54;-15.06;22.25;16.66;43.88;0
4.57;-13.97;-19.08;-40.15;33.58;8.91;0
2.85;-12.97;-13.99;-95.97;31.36;-17.11;0
-3.01;-14.13;-3.02;-88.19;2.29;-9.01;0
-5.21;-15.5;-2.49;-13.37;14.45;20.32;0
-0.09;-10.05;-10.04;14.34;19.55;43.18;0
8.14;-5.66;-14.76;-16.79;-1.91;24.6;0
10.77;-5.59;-15.5;-47.88;-2.81;-21.95;0
9.81;-7.14;-16.42;-71.48;25.35;-69.91;0
3.53;-8.99;-14.87;-87.95;57.02;-83.35;0
-0.85;-12.05;-11.47;-88.08;76.67;-76.11;0
-4.13;-12.56;-10.14;-71.78;82.07;-60.08;0
-5.3;-11.1;-10.43;-60.02;72.58;-42.92;0
-4.17;-9.93;-11.48;-58.34;55.67;-37.71;0
-3.33;-8.94;-12.7;-66.33;43.93;-34.79;0
-1.71;-8.55;-12.65;-76.56;41.58;-34.73;0
-0.33;-8.67;-11.89;-82.29;41.65;-39.84;0
0.11;-8.62;-11.59;-84.5;42.67;-48.74;0
0.23;-9.03;-11.22;-83.73;45.42;-58.04;0
-0.52;-9.66;-10.3;-79.97;41.32;-62.88;0
-1.05;-10.52;-9.8;-70.17;34.76;-65.5;0
-1.21;-10.41;-9.93;-59.08;27.76;-65.59;0
-0.95;-9.79;-10.51;-55.38;23.47;-62.92;0
-0.64;-9.32;-10.51;-56.47;25.59;-59.34;0
-0.66;-9.61;-9.9;-57.18;29.05;-55.95;0
-1.49;-10.28;-9.03;-52.07;32.84;-54;0
-2.55;-10.5;-8.42;-42.4;30.58;-52.79;0
-3.2;-10.61;-8.56;-32.24;25.45;-50.37;0
-3.67;-10.64;-9.49;-26.04;23.69;-46.21;0
-4.08;-10.4;-9.91;-22.81;18.55;-39.16;0
-3.82;-10.73;-9.54;-17.89;11.84;-31.69;0
-3.64;-10.75;-8.92;-7.18;8.94;-25.75;0
-3.47;-11.01;-8.74;1.47;11.59;-22.12;0
-2.91;-10.99;-8.57;5.79;18.03;-19.36;0
-2.08;-11.16;-8.58;10.04;22.58;-18.38;0
-1.67;-11.79;-8.2;19.3;18.67;-15.15;0
-1.84;-12.06;-7.33;35.74;14.03;-8.08;0
-2.9;-11.78;-5.76;56.95;12.01;2.12;0
-4.51;-12.14;-4.29;83.25;10.2;17.25;0
-5.56;-12.26;-3.61;110.62;2.41;38.18;0
-5.31;-11.59;-3.55;132.38;-6.74;56.66;0
-4.42;-12.7;-4.2;150.59;-5.07;73.9;0
-2.96;-13.36;-7.14;164.19;-4.57;89.89;0
-1.5;-12.97;-11.31;169.52;-27.3;102.13;0
-1.17;-13.23;-15.03;163.03;-66.72;111.08;0
-0.53;-12.95;-15.97;142.53;-79.56;115.96;0
0.08;-13.42;-14.61;118.18;-49.68;107.64;0
0.1;-13.18;-11.49;97.88;-23.26;103.99;0
0.05;-13.27;-9.4;96.75;-8;104.26;0
0.6;-14.03;-9.75;99.43;-20.68;107.31;0
1.23;-13.62;-10.36;98.59;-32.17;104.99;0
1.52;-11.84;-11.09;94.94;-39.9;101.46;0
1.62;-10.22;-11.69;88.77;-39.85;95.74;0
1.76;-8.77;-11.85;77.33;-41.81;83.33;0
2.12;-7.61;-11.9;64.4;-42.17;69.48;0
2;-6.78;-11.96;51.93;-43.14;55.6;0
2.16;-6.14;-12.32;38.4;-39.53;40.76;0
2.32;-4.81;-12.49;22.25;-34.88;28.01;0
3.24;-3.57;-12.47;6.9;-21.8;19.58;0
3.14;-2.68;-12.32;-1.59;-13.06;12.91;0
3.09;-2.3;-12.25;-11.78;-9.05;3.6;0
4.39;-2.13;-11.11;-30.49;-4.91;-17.55;0
3.48;-2.82;-8.36;-45.5;-37.47;-39.13;0
-0.21;-3.72;-5.96;-46.84;-136.17;-49.37;0
-1.65;-5.58;-6.42;-50.19;-219.81;-51.35;0
-2.11;-8.01;-6.76;-68.73;-225.46;-51.7;0
-4.08;-9.54;-5.86;-86.18;-131.33;-41.88;0
-8.31;-12.81;-6.29;-102.7;49.83;-25.3;0
-12.22;-15.9;-4.31;-106.18;185.17;-0.17;0
-9.71;-13.98;-1.53;-80.57;182.48;23.63;0
-7.36;-11.39;-0.4;-43.78;118.83;39.41;0
-6.29;-10.18;-1.57;-10.66;64.25;48.52;0
-3.79;-9.9;-5.88;27.11;53.31;56.08;0
-0.36;-11.45;-13.97;28.21;11.45;58.01;0
5.8;-14.5;-18.89;-28.95;-28;21.22;0
6.98;-11.93;-11.21;-71.79;-53.61;-10.14;0
2.5;-11.66;-1.21;-52;-71.56;-11.08;0
1.17;-11.36;-5.6;-2.72;-10.73;2.04;0
3.66;-8.64;-11.02;1.74;37.45;3.26;0
6.62;-6.6;-18.03;-18.84;33.56;-15.12;0
6.11;-6.78;-20.35;-63.33;30.96;-49.58;0
3.23;-10.26;-18;-101.57;48.88;-75.21;0
-0.97;-11.96;-13.43;-111.71;67.61;-73.2;0
-2.37;-12.91;-10.06;-98.63;75.61;-62.05;0
-3.17;-11.54;-8.53;-75.19;77.83;-52.4;0
-2.86;-10.31;-10.08;-63.79;64.78;-47.82;0
-2.34;-9.48;-11.03;-58.18;50.7;-48.54;0
-1.45;-8.84;-12.98;-63.96;45.71;-49.66;0
-0.37;-9.35;-13.66;-77.59;46.37;-53.83;0
0.34;-9.87;-13.13;-86.64;47.42;-58.04;0
0.56;-9.79;-11.87;-86.88;45.35;-61.53;0
0.74;-9.5;-10.64;-82.06;47.76;-65.28;0
-0.58;-9.35;-9.03;-69.9;54.8;-62.79;0
-0.94;-10;-8.13;-54.7;55.18;-60.25;0
-1.51;-10.19;-7.47;-37.65;54.61;-55.14;0
-1.93;-10.08;-7.38;-21.8;56.96;-48.27;0
-2.43;-9.64;-9.47;-17.17;53.25;-40.59;0
-3.02;-9.68;-9.76;-20.12;47.47;-37.28;0
-3.06;-9.8;-9;-18.21;41.42;-35.5;0
-2.8;-9.61;-8.6;-13.78;44.96;-36.69;0
-2.38;-9.4;-8.64;-11.37;55.35;-38.28;0
-2.21;-10.28;-8.91;-9.87;54.99;-39.93;0
-2.24;-11.52;-9.25;-6.82;50.01;-38.88;0
-2.81;-12.09;-8.74;-3.82;52.72;-39.68;0
-3.66;-11.27;-7.47;0.4;55.96;-40;0
-4.96;-10.58;-5.76;9.85;54.33;-35.69;0
-6.72;-10.25;-3.53;32.56;46.05;-21.27;0
-7.6;-10.48;-2.65;70.28;34.41;-1.15;0
-8.39;-12.04;-3.62;110.43;14.42;21.15;0
-7.88;-13.05;-5.37;133.14;-15.33;48.73;0
-6.03;-14.08;-7.74;140.06;-39.92;77.78;0
-3.65;-14.5;-11.2;147.5;-88.52;96.47;0
-2.17;-14.14;-14.5;148.46;-131.08;107.48;0
-0.99;-13.41;-14.82;127.97;-117.59;109.93;0
0.87;-12.92;-12.89;104.79;-86.46;111.4;0
1.08;-13.34;-10.59;95.2;-70.81;112.74;0
0.49;-14.97;-10.55;95.53;-51.79;115.44;0
-0.01;-15.74;-11.88;92.92;-35.95;117.91;0
0.48;-14.71;-12.06;83.08;-22.42;120.02;0
1.54;-12.67;-11.73;74.13;-20.76;120.91;0
2;-11.01;-11.27;67.35;-27.08;114.75;0
2.27;-9.91;-10.62;60.96;-36.34;104.7;0
2.5;-9.02;-10.28;57.62;-42.58;93.53;0
2.39;-8.02;-10.47;56.18;-48.03;80.76;0
2.28;-7.18;-10.96;52.69;-53.59;70.54;0
2.6;-6.09;-11.37;43.69;-55.04;58.42;0
2.76;-4.99;-11.56;30.72;-55.97;44.41;0
3.26;-3.5;-11.53;18.79;-50.77;29.86;0
3.3;-2.54;-11.54;9.55;-36.96;19.59;0
3.44;-2.7;-11.89;-3.86;-21.43;3.37;0
3.67;-2.76;-11.67;-24.67;-12.4;-22.72;0
2.37;-2.96;-9.64;-36.82;-35.32;-41.98;0
0.03;-3.39;-7.19;-36.2;-110.02;-50.68;0
-1.11;-4.85;-6.87;-36.22;-195.19;-53.94;0
-1.44;-6.21;-7.53;-51.04;-220.6;-53.79;0
-2.95;-7.61;-6.9;-78.3;-179.62;-47.59;0
-4.74;-10.65;-5.57;-98.22;-65.23;-36.32;0
-8.61;-13.28;-4.94;-97.76;94.16;-14.28;0
-10.78;-14.25;-5.37;-90.5;178.06;8.65;0
-9.08;-11.78;-4.25;-75.79;176.02;29.67;0
-7.34;-11.26;-2.86;-42.22;153.04;47.35;0
-6.12;-11.67;-3.84;-1.86;144.92;62.6;0
-0.67;-17.4;-9.18;-6.44;60.75;56.19;0
5.27;-19.55;-11.01;-19.5;-73.36;13.54;0
5.16;-12.5;-7.73;15.75;-146.04;9.45;0
5.2;-8.36;-9.93;13.08;-110.12;20.2;0
6.94;-5.59;-12.52;-5.37;-12.42;13.08;0
9;-4.29;-17.1;-33.98;39.12;-21.05;0
9.21;-5.21;-20.35;-76.25;57.44;-63.96;0
6.27;-9.5;-18.79;-119.13;78.63;-99.86;0
-0.11;-14.07;-14.03;-126.48;104.48;-106.72;0
-4.59;-14.18;-11.03;-110.13;115.29;-84.58;0
-5.6;-12.15;-10.51;-96.46;111.9;-59.75;0
-4.33;-11.76;-10.01;-86.04;100.77;-46.8;0
-3.33;-11;-10.4;-73.83;76.68;-46.99;0
-2.3;-9.15;-10.88;-65.25;54.29;-50.12;0
-1.11;-8.47;-12.84;-73.1;42.32;-58.28;0
-0.19;-8.95;-13.04;-90.14;42.41;-66.63;0
0.1;-9.83;-11.86;-97.55;41.36;-74.21;0
-0.75;-9.89;-10.39;-90.72;36.47;-72.06;0
-0.72;-9.61;-9.22;-78.15;39.79;-66.6;0
-2.02;-9.73;-8.03;-63.54;35.71;-56.66;0
-2.07;-10.2;-7.07;-43.18;29.75;-52.02;0
-2.44;-9.85;-7.68;-27.97;22.23;-46.54;0
-1.91;-8.87;-9.21;-26.96;23.41;-44.74;0
-1.55;-9.04;-9.98;-36.66;33.16;-49.84;0
-1.9;-9.77;-9.23;-41.23;51.53;-52.72;0
-1.93;-10.46;-8.73;-31.57;58.52;-52.83;0
-2.13;-11.04;-8.63;-19.99;54.33;-55.39;0
-3.13;-11.26;-8.5;-12.44;49.18;-55.3;0
-4.57;-11.04;-7.28;-9.85;46.22;-45.94;0
-4.62;-10.75;-4.22;-0.96;48.83;-30.28;0
-4.19;-10.56;-1.68;28.61;57.19;-13.63;0
-2.61;-9.76;-2.99;68.87;67.63;0.1;0
-1.09;-10.09;-6.26;99.58;72.87;5.74;0
-2.62;-12.61;-9.07;114.77;53.69;8.37;0
-6.68;-14.59;-10.69;116.25;12.88;24.27;0
-9.48;-14.82;-11.49;115.49;-26.73;50.79;0
-8.95;-14.32;-12.09;109.69;-65.33;80.63;0
-5.62;-14.49;-12.35;102.41;-94.26;99.82;0
-1.19;-13.27;-11.45;100.33;-105.63;112.03;0
1.43;-12.6;-10.07;96.87;-104.03;118.52;0
1.42;-14.22;-9.4;98.63;-112.06;122.89;0
0.56;-16.44;-10.53;106.92;-107.2;124.66;0
0.4;-17.07;-11.58;112.5;-73.12;129.15;0
1.92;-14.33;-11.36;109.52;-39.75;128.52;0
4.04;-12.43;-10.8;99.51;-29.61;123.89;0
5.29;-11.34;-10;93.69;-22.19;107.14;0
4.58;-9.66;-9.73;94.53;-12.18;87.21;0
3.55;-8.2;-10.22;91.71;-3.04;73.9;0
2.53;-7.31;-11.19;86.24;1.06;64.76;0
2.19;-6.53;-11.94;73.82;5.59;59.55;0
1.9;-6.41;-12.28;57.09;5.35;53.79;0
1.67;-6.02;-12.06;41.1;0.41;47.03;0
1.51;-5.23;-12.09;30.77;-8.42;37.76;0
2.59;-3.81;-12.18;28.27;-8.23;31.35;0
3.52;-3.7;-12.59;25.35;2.87;20.74;0
3.74;-3.83;-13.41;8.02;15.37;-10.41;0
2.02;-3.11;-11.53;-14.63;0.39;-43.62;0
-0.42;-2.37;-7.97;-29.02;-97.26;-62.01;0
-1.83;-3;-6.96;-38.07;-216.1;-70.18;0
-2.14;-4.19;-7.79;-56.86;-246;-74.87;0
-3.49;-6.03;-6.74;-80.59;-174.87;-67.39;0
-9.23;-11.27;-5.4;-88.21;6.55;-43.17;0
-15.2;-17.61;-5.09;-89.8;178.51;-3.64;0
-10.31;-15.83;-2.84;-78.23;204.16;32.09;0
-8.27;-11.68;-0.23;-51.75;150.93;50.09;0
-8.1;-8.37;-4.74;-31.04;154.62;65.77;0
-2.74;-13.74;-7.07;-5.04;110.62;67.87;0
9.65;-19.55;-12.28;4.59;-56.12;22.96;0
11.62;-12.51;-8.43;8.24;-186.89;-13.87;0
3.12;-10.26;-8.12;21;-139.11;-0.86;0
-0.79;-7.51;-15.16;29.85;-27.81;30.33;0
4.73;-4.11;-19.88;-4.14;40.83;23.86;0
9.89;-2.67;-21.6;-58.81;37.23;-20.01;0
9.73;-5.93;-19.52;-109.47;35.85;-70.95;0
5.17;-11.6;-15.95;-125.02;66.75;-101.46;0
0.07;-15.63;-13.15;-122.51;96.18;-100.5;0
-3.59;-15.11;-10;-110.57;107.32;-77.08;0
-3.79;-13.59;-8.85;-94.62;99.4;-57.12;0
-3.13;-12.69;-8.8;-75.77;66.83;-56.63;0
-2.58;-10.55;-9.74;-58.99;26.7;-59.4;0
-1.42;-8.29;-11.42;-61.24;6.77;-65.75;0
-1.03;-7.65;-11.88;-73.81;11.8;-70.58;0
-0.7;-8.6;-11.8;-83.78;28.2;-76.82;0
-1.67;-9.79;-11.2;-85.24;41.23;-76.69;0
-3.2;-10.75;-9.77;-77.36;41.02;-67.36;0
-1.83;-11.36;-7.74;-57.86;20.38;-61.56;0
-2.83;-11.53;-6.93;-39.7;-4.8;-54.63;0
-2.03;-10.33;-6.98;-32.11;-11.82;-54.36;0
-0.55;-8.57;-7.37;-32.88;-0.79;-52.83;0
0.73;-8.6;-8.48;-33.44;23.64;-53.03;0
0.37;-10.51;-9.05;-32.07;58.27;-56.33;0
-1.94;-12.22;-8.55;-27.66;78.61;-57.67;0
-3.64;-12.02;-7.08;-22.37;79.64;-53.37;0
-5.18;-12.23;-4.97;-12.17;78.12;-46.42;0
-6.1;-11.94;-3.44;7.11;74.76;-37.58;0
-6.78;-10.23;-2.71;36.37;64.69;-20.25;0
-7.21;-8.55;-3.05;67.95;59.21;-2.45;0
-7.39;-7.9;-4.56;94.83;51.51;20.5;0
-7.44;-10.25;-7.45;115.18;30.61;46.64;0
-9.09;-14.94;-10.47;122.44;-19.19;77.04;0
-9.03;-16.33;-11.15;120.66;-68.88;102.74;0
-6.67;-15.22;-10.8;125.27;-115.62;121.25;0
-2.74;-14.31;-11.17;127.78;-133.84;130.67;0
0.59;-13.48;-10.88;117.57;-115.75;132.15;0
1.92;-14.6;-9.15;106.23;-91.11;134.75;0
1.14;-16.38;-8.92;109.6;-68.2;135.97;0
1.11;-17.03;-11.39;111.51;-34.55;135.95;0
1.65;-15.19;-12.56;97.29;-6.33;133.6;0
2.69;-13.23;-11.5;78.91;7.76;133.71;0
3.38;-12.05;-10.27;69.8;8.03;124.46;0
2.87;-10.95;-9.75;70.82;-11.17;108.25;0
3;-9.33;-10.41;71.89;-29.17;95.04;0
3.03;-7.88;-11.15;63.78;-38.41;80.45;0
2.73;-6.62;-11.65;54.35;-47.5;69.99;0
3.04;-5.74;-11.77;45.27;-57.01;58.99;0
3.26;-4.75;-12.16;35.43;-67.44;46.28;0
4.04;-3.04;-12.8;27.12;-67.13;35.99;0
4.1;-1.96;-13.55;21.4;-51.55;27.01;0
4.84;-2.14;-15.07;3;-29.17;-3.52;0
4.44;-1.64;-14.27;-23.69;-10.36;-40.01;0
2.64;-1.32;-9.95;-38.63;-74.25;-59.09;0
1.07;-1.28;-7.4;-39.59;-186.39;-64.41;0
0.92;-3.16;-8.13;-52.62;-246;-70.58;0
-0.4;-5.43;-6.34;-80.93;-235.17;-69.14;0
-4.52;-10.23;-3.83;-103.76;-116.27;-49.29;0
-13.45;-17.28;-2.49;-109.22;123.61;-24.66;0
-14.57;-19.55;-1.29;-82.3;236.29;16.35;0
-7.38;-15.32;-1.56;-60.75;171.21;36.14;0
-6;-12.48;-0.03;-30.09;90.87;53.53;0
-4.01;-11.82;-5.16;-4.92;75.64;66.08;0
1.16;-17.65;-12.73;19.95;59.48;59.97;0
5.74;-16.06;-18.61;-0.36;8.09;34.46;0
6.22;-7.89;-13.9;-46.73;-75.2;23.47;0
3;-8.09;-7.86;-57.13;-72.65;30.25;0
3.72;-7.84;-10.09;-24.73;3.56;35.96;0
7.35;-4.78;-12.69;-26.18;50.59;13.36;0
10.57;-4.44;-16.49;-54.63;45.74;-36.98;0
8.43;-8.65;-18.31;-91.71;41.06;-89.64;0
2.14;-13.53;-16;-113.43;63.69;-113.57;0
-3.12;-14.65;-12.33;-112.35;82.68;-96.56;0
-4.73;-14.08;-10.33;-100.11;84.8;-70.78;0
-5.07;-12.15;-9.79;-90.08;85.36;-53.95;0
-3.79;-10.6;-9.65;-82.87;65.43;-51.86;0
-2.86;-9.16;-10.02;-76.37;38.55;-56.7;0
-1.38;-7.86;-11.76;-80.81;26.55;-70.17;0
-0.68;-7.79;-12.48;-93.14;31.56;-82.57;0
-0.36;-8.46;-11.82;-98.26;38.74;-89.04;0
-0.97;-9.47;-10.4;-90.96;40.2;-87.27;0
-1.37;-9.78;-9.76;-78.18;35.43;-79.47;0
-1.24;-9.8;-8.93;-67.1;32.17;-74.22;0
-1.84;-10.35;-9.02;-62.83;27.62;-71.79;0
-2.13;-10.35;-7.8;-59.9;30.03;-67.75;0
-3;-9.88;-7.21;-51.81;45.38;-62.66;0
-3.84;-9.49;-8.14;-44.79;63.98;-58.13;0
-4.11;-9.9;-8.9;-41.14;69.65;-56.11;0
-4.58;-9.72;-8.51;-32.1;55.1;-52.99;0
-4.39;-10.73;-7.74;-23.51;42.65;-50.25;0
-4.38;-13.57;-5.97;-11.37;37;-41.78;0
-4.93;-16.13;-3.84;11.59;39.64;-27.3;0
-5.99;-13.79;-1.4;43.63;47.86;-4.95;0
-5.71;-10.66;-0.47;78.43;58.33;16.56;0
-4.97;-9.73;-0.38;109.32;73.12;35.37;0
-3.63;-10.61;-2.51;148.14;81.89;48.15;0
-3.94;-14.44;-7.18;176.92;44.24;56.48;0
-6.52;-17.69;-13.48;179.61;-16.33;72.89;0
-8.67;-15.28;-16.62;166.73;-54.23;91.9;0
-7.39;-12.35;-15.45;140.92;-84.93;113.32;0
-3.67;-12.94;-12.95;118.56;-89.4;130.5;0
-1.88;-15.09;-8.95;106.21;-94.91;144.79;0
-0.53;-16.56;-6.84;122.53;-99.39;153.99;0
0.83;-17.82;-10.78;136.09;-94.77;158.21;0
1.87;-17.28;-15.35;127.36;-57.23;148.5;0
2.94;-14.64;-15.63;104.67;-20.82;127.24;0
3.35;-11.81;-12.73;87.89;-11.4;115.35;0
4.31;-10.32;-11.43;78.85;-17.9;99.7;0
4.08;-8.47;-12.19;72.67;-27.3;78.31;0
4.02;-6.64;-12.96;56.66;-19.86;63.21;0
3.48;-5.12;-12.84;37;-17.62;52.28;0
3.42;-4.14;-12.42;20.72;-21.58;42.08;0
3.92;-2.8;-12.71;9.43;-23.84;32.31;0
4.29;-1.36;-13.34;7.36;-17.06;26.28;0
4.2;-1.63;-14.05;-1.11;-18.33;10.26;0
4.96;-1.19;-13.92;-22.8;-3.36;-25.04;0
2.89;-0.41;-8.3;-38.28;-51.23;-59.16;0
0.03;-0.73;-5.84;-33.05;-186.71;-71.34;0
-0.07;-2.5;-7.31;-39.69;-246;-72.69;0
-0.81;-5.44;-6.28;-71.64;-246;-63.02;0
-5.52;-10.82;-2.17;-99.21;-166.75;-42.84;0
-12.3;-18.36;-1.34;-96.2;129.99;-24.87;0
-12.68;-19.55;-3.63;-74.02;254.27;16.69;0
-6.95;-15.34;-1.72;-53.02;199.05;36.2;0
-6.11;-10.88;-0.83;-26.23;111.81;45.56;0
-6.34;-10.03;-5.01;-3.92;95.63;57.21;0
-2.2;-17.31;-11.23;22.27;68.04;64.36;0
4.84;-18.6;-18.96;3.31;-5.9;37.37;0
7.45;-9.46;-14.02;-33.28;-102.75;18.41;0
6.68;-7.55;-8.01;-38.05;-103.84;12.73;0
6.33;-5.69;-9.67;-9.79;-35.08;5.31;0
7.49;-2.31;-14.54;-18.55;18.87;-21.27;0
8.46;-2.42;-19.41;-55.18;30.01;-62.33;0
7.18;-7.01;-20.92;-105.81;33.27;-103.66;0
2.86;-14.52;-18.29;-142.27;54.7;-125.02;0
-2.68;-16.78;-12.94;-140.8;76.64;-102.38;0
-3.88;-13.56;-9.26;-117.34;78.67;-67.91;0
-2.51;-12.04;-9.4;-100.2;85.12;-57.33;0
-1.81;-10.36;-9.87;-90.24;74.03;-58.94;0
-0.81;-8.69;-10.38;-84.32;46.7;-65.92;0
0.32;-7.84;-11.76;-88.24;33.9;-76.36;0
0.65;-7.99;-12.23;-96.88;43;-91.24;0
0.21;-8.27;-11.76;-101;58.2;-99.82;0
-1.01;-9.04;-11;-96.82;65.1;-96.85;0
-1.77;-9.78;-10.76;-87.99;63.25;-89.07;0
-2.74;-10.86;-9.39;-77.55;49.04;-84.66;0
-4.38;-11.96;-8.88;-68.27;20.21;-77.69;0
-4.51;-11.34;-7.03;-60.95;4.51;-69.26;0
-4.78;-11;-6.19;-56.07;6.51;-59.84;0
-5.3;-11.28;-5.54;-43.77;15.32;-52.87;0
-6.06;-12.38;-5.52;-21.52;20.92;-46.95;0
-6.31;-12.65;-5.74;-0.79;18.54;-35.06;0
-4.67;-13.53;-5.75;12.2;17.08;-18.74;0
-2.72;-14.44;-4.64;22.64;27.83;-7.15;0
-1.99;-12.83;-2.01;43.55;40.32;5.63;0
-3.03;-10.48;0.69;74.35;51.04;21.6;0
-3.86;-10.24;0.87;111.92;71.25;37.86;0
-4.3;-10.81;-3.37;151.55;86.21;51.72;0
-4.36;-12.39;-8.52;169.35;82.71;63.91;0
-6.13;-17.12;-13.46;164.14;37.93;78.83;0
-6.99;-16.97;-17.08;158.47;-52.1;94.67;0
-5.55;-13.52;-17.69;145.95;-124.17;105.78;0
-3.67;-12.32;-16.4;111.92;-114.12;126.96;0
-1.87;-13.22;-10.74;73.43;-77.05;141.28;0
-0.04;-15.5;-5.02;89.72;-82;149.7;0
1.28;-17.32;-8.09;128.54;-97.55;161.57;0
3.39;-17.2;-14.46;130.79;-59.26;153.47;0
3.82;-14.33;-15.69;103.29;-17.13;130.56;0
3;-11.41;-13.18;79.49;-9.38;116.57;0
2.83;-9.92;-10.82;70.63;-26.68;107.65;0
2.96;-8.8;-10.69;70.95;-48.22;96.03;0
3.68;-7.56;-11.62;64.69;-57.4;83.02;0
3.91;-6.19;-11.91;52.15;-61.62;71.75;0
4.45;-5.02;-11.96;39;-63.41;61.86;0
5.42;-3.9;-12.38;31.01;-61.64;50.15;0
6.87;-2.31;-12.95;27.73;-41.89;38.17;0
6.95;-1.82;-13.32;26.25;-15.34;22.89;0
6.34;-1.5;-14.6;12.43;8.3;-10.88;0
4.49;-0.88;-13.54;-13.02;41.22;-50.68;0
1.69;0.05;-7.96;-36.42;-37.03;-72.78;0
0.33;-0.96;-6.97;-45.85;-171.76;-78.99;0
0.11;-3.95;-7.64;-69.43;-240.49;-75.93;0
-2.33;-9.54;-3.69;-111.14;-214.13;-62.87;0
-13.51;-19.55;2.51;-100.21;-36.48;-34.75;0
-19.7;-19.55;-2.14;-75.33;225.12;7.06;0
-12.15;-16.33;-5.46;-67.63;209.77;44.13;0
-8.59;-12.09;-2.51;-60.45;124.7;55.69;0
-7.35;-11.75;-5.03;-37.36;111.97;55.04;0
-2.25;-18.45;-7.26;8.73;105.61;55.38;0
7.98;-18.81;-13.71;31.26;-6.82;38.54;0
14.38;-8.5;-13.52;3.24;-149.24;20.51;0
12.77;-5.38;-9.9;-24.47;-141.65;-1.3;0
8.16;-4.31;-12.3;-21.53;-28.23;-16.96;0
5.92;-1.64;-16.3;-33.2;61.44;-45.86;0
5.84;-2.77;-21.3;-69.55;88.96;-78.72;0
6.47;-7.9;-23.17;-133.25;71.35;-118.95;0
1.88;-16.3;-18.77;-180.63;72.91;-140.94;0
-4.15;-18.55;-12.3;-176.43;84.21;-116.77;0
-5.6;-13.76;-8.34;-145.53;90.11;-82.66;0
-4.9;-12.15;-8.22;-114.98;87.12;-67.81;0
-2.95;-9.1;-10.12;-97.98;67.29;-64.59;0
-0.72;-6.98;-11.38;-94.95;34.61;-67.08;0
1.13;-6.29;-12.33;-100.25;16.01;-76.96;0
1.65;-7.03;-12.45;-108.01;25.96;-91.61;0
1.2;-8.03;-12.21;-108.53;46.75;-99.83;0
0.55;-9;-12.11;-104.93;57.9;-94.2;0
0.3;-9.38;-10.73;-94.33;52.51;-84.51;0
0.29;-9.12;-10.12;-82.65;41.34;-80.33;0
0.43;-10.93;-9.38;-77.11;34.09;-81.33;0
-1.75;-11.75;-8.81;-75.97;39.02;-76.95;0
-3.4;-10.8;-7.26;-71.75;55.32;-71.37;0
-4.86;-10.96;-6.56;-64.57;68.36;-61.35;0
-5.3;-11.99;-6.74;-45.47;72.36;-53.02;0
-5.63;-12.83;-7.92;-16.44;66.29;-45.09;0
-5.58;-13.11;-9.62;-1.32;52.98;-38.38;0
-5.1;-13.4;-9.46;-1.12;26.83;-29.57;0
-4.98;-13.39;-6.67;0.51;3.45;-17.18;0
-5.57;-13.22;-3.42;19.88;8.41;0.29;0
-5.18;-12.31;-1.76;61.72;34.53;18.55;0
-4.06;-12.53;-3.38;109.94;52.09;35.57;0
-3.33;-13.55;-6.26;146.42;44.38;48.11;0
-4.27;-15.27;-9.28;159.57;17.14;61.67;0
-5.96;-16.25;-10.84;155.88;-10.41;79.44;0
-5.85;-14.49;-11.15;149.92;-36.33;101.91;0
-3.04;-13.9;-11.45;137;-58.2;121.37;0
0.54;-13.55;-11.88;128.76;-78.99;128.17;0
3.4;-12.53;-12.41;132.83;-99.39;127.92;0
2.48;-12.88;-12.11;129.14;-80.3;124.89;0
0.14;-13.72;-11.59;125.7;-49.08;128.93;0
-1.89;-14.92;-12.24;123.06;-29.35;144.76;0
0.2;-15.46;-14.26;114.78;-1.2;152.28;0
2.18;-13.19;-13.78;98.61;0.8;145.58;0
2.85;-11.85;-12.41;86.01;-16.03;129.05;0
2.46;-10.78;-11.37;80.78;-49.39;116.21;0
2.74;-9.75;-11.35;78.43;-76.33;104.99;0
2.88;-8.7;-12.1;73.9;-92.85;95.96;0
3.26;-7.58;-12.36;66.43;-95.02;86.52;0
3.64;-6.56;-12.42;58.47;-91.12;77.71;0
4.35;-5.02;-12.79;50.47;-85.53;67.64;0
5.7;-3.16;-13.41;46.24;-67.79;55.6;0
5.4;-2.58;-13.71;45.19;-42.91;46.02;0
7.01;-1.92;-14.31;27.69;-7.07;16.99;0
5.49;-1.49;-11.79;5.27;22.79;-25.97;0
1.88;-1.42;-6.35;-2.97;-66.47;-48.88;0
0.22;-1.83;-5.16;-6.5;-190.46;-60.92;0
-0.65;-3.24;-5.93;-25.02;-243.71;-59.64;0
-2.47;-5.35;-5.43;-68.83;-194.95;-43.55;0
-6.32;-9.81;-3.9;-91.44;-21.46;-26.27;0
-9.78;-14.78;-5.71;-91.36;180.68;-14.55;0
-11.53;-18.26;-7.9;-85.11;236.42;-0.48;0
-8.86;-16.8;-6.27;-81.72;180.49;14.7;0
-10.27;-14.84;-4.11;-52.92;141.38;37.99;0
-8.78;-14.87;-9.33;-17.34;137.07;58.34;0
-0.1;-19.55;-14.19;-16.1;45.33;45.37;0
9.13;-15.68;-11.05;-29.22;-115.89;8.03;0
9.42;-10.96;-5.42;-19.02;-198.53;-1.65;0
8.07;-8.49;-9.42;-10.79;-107.46;5.98;0
9.73;-4.06;-13.44;-11;-5.75;-5.37;0
10.44;-1.49;-17.93;-36.87;45.46;-44.06;0
11.01;-2.37;-21.95;-89.77;65.9;-89.88;0
8.71;-8.11;-20.35;-143.6;82.09;-134.02;0
1.96;-15.57;-15.07;-160.31;112.61;-139.62;0
-4.91;-16.99;-11.69;-142.28;133.07;-105.53;0
-6.41;-13.84;-10.19;-118.27;140.83;-78.53;0
-5.98;-11.29;-10.25;-106.29;124.45;-69.42;0
-5.01;-9.47;-10.29;-97.92;87.92;-68.09;0
-4.13;-7.96;-10.74;-93.7;48.73;-67.96;0
-2.31;-7.12;-11.47;-97.61;30.46;-73.33;0
-0.89;-6.89;-10.95;-101.73;27.68;-87.5;0
-1.05;-7.28;-9.75;-97.11;27.62;-92.65;0
-1.45;-8.39;-9.43;-86.5;29.48;-86.88;0
-1.3;-9.73;-9.28;-73.79;30.3;-77.93;0
-0.35;-11.02;-9.63;-61.21;27.06;-79.65;0
-0.96;-10.73;-9.69;-55.37;25.49;-72.55;0
-1.85;-9.33;-9.56;-63.05;32.67;-73.22;0
-3.31;-9.61;-8.32;-73.95;43.47;-70.75;0
-5.13;-11.17;-5.84;-63.64;54.05;-65.27;0
-6.27;-12.12;-5.24;-31.02;53.41;-54.54;0
-6.14;-12.65;-7.42;-6.27;45.32;-41.37;0
-5.66;-13.62;-8.57;-3.19;36.78;-27.26;0
-4.53;-13.85;-6.85;-0.56;30.62;-15.04;0
-4.31;-12.93;-3.52;15.84;42.12;-2.3;0
-4.54;-12.12;-0.62;52.92;62.01;14.91;0
-4.53;-11.34;-1.1;94.71;74.22;30.22;0
-4.53;-11.43;-3.48;132.97;83.57;43.25;0
-5.34;-12.74;-6.8;159.8;75.47;58.37;0
-7.23;-16.52;-9.76;160.98;45.12;76.24;0
-7.91;-17.56;-12.25;156.03;-14.39;95.38;0
-6.29;-15.22;-14.1;148.89;-85.76;113.54;0
-2.78;-14.16;-15.6;137.28;-131.71;134.85;0
1.57;-12.79;-14.68;114.14;-114.7;142.88;0
2.22;-14.2;-10.8;94.85;-91.47;139.39;0
0.75;-17.05;-8.17;114.01;-87.78;139.11;0
0.12;-18.68;-12.17;135.36;-59.55;148.96;0
0.76;-17.08;-15.42;122.52;-8.11;150.05;0
1.93;-13.58;-15.17;85.93;2.48;138.25;0
2.2;-11.78;-12.69;60.14;-18.74;127.88;0
3.13;-11.16;-10.49;53.38;-46.5;116.89;0
3.32;-10.18;-10.45;56.12;-71.53;101.29;0
3.45;-8.48;-11.92;53.92;-87.69;87.32;0
3.79;-6.8;-12.51;45.86;-92.3;78.21;0
4.37;-5.24;-12.41;36.24;-89.61;67.05;0
5.19;-3.15;-12.81;28.92;-80.2;53.63;0
6.48;-1.05;-13.65;27.24;-50.15;41.94;0
6.28;-0.38;-13.88;20.22;-27.9;20.79;0
6.14;0.32;-14.4;0.72;-12.96;-24.11;0
3.86;0.92;-10.3;-18.28;-57.93;-55.66;0
3.13;1.08;-6.53;-26.6;-163.52;-77.76;0
1.77;-1.2;-6.11;-29.73;-246;-84.77;0
1.32;-4.13;-5.44;-46.34;-246;-73.85;0
-1.44;-8.68;-2.44;-75.58;-183.64;-52.81;0
-10.55;-18.59;1.43;-72.04;22.16;-28.63;0
-15.52;-19.55;-3.72;-42.96;241.23;8.69;0
-9.63;-18.45;-7.27;-40.53;232.29;56.05;0
-8.74;-10.08;-4.98;-41.62;161.25;82.34;0
-6.54;-5.62;-9.64;-34.59;183.11;92.42;0
-0.18;-5.75;-15.76;-10.85;210.25;84.05;0
10.52;-16.11;-20.65;-34.74;103.96;25.51;0
13.63;-16.09;-11.05;-89.73;-105.88;-50.14;0
3.53;-15.95;4.6;-43.77;-195.07;-50.69;0
-4.33;-13.96;-6.23;19.94;-75.2;0.49;0
0.54;-7.52;-15.32;22.08;-0.63;20.76;0
7.31;-2.97;-20.46;-26.31;4.59;-1.98;0
11.88;-4;-20.81;-91.16;-9.67;-52.81;0
10.2;-9.04;-18.77;-131.83;21.49;-98.48;0
5.32;-12.01;-14.8;-138.73;82.41;-110.22;0
1.55;-13.7;-12.77;-124.77;130.17;-101.21;0
-2.69;-12.93;-11.78;-112.48;149.49;-81.8;0
-3.2;-11.86;-11.48;-110.52;141.36;-76.43;0
-4.06;-10.27;-10.69;-104.1;101.52;-79.3;0
-4.02;-9.27;-10.7;-91.86;63.22;-76.46;0
-2.77;-8.73;-11.66;-87.19;45.52;-76.3;0
-1.54;-8.09;-12.09;-87.93;47.78;-86.82;0
-1.45;-8.08;-11.48;-84.1;42.96;-92.79;0
-1.25;-7.98;-10.99;-80.16;29.63;-92.26;0
-1.67;-8.79;-10.55;-82.53;18.84;-91.27;0
-2.4;-8.67;-9.26;-86.16;7.77;-86.08;0
-3.36;-10.72;-7.72;-83.02;7.27;-89.92;0
-5.48;-12.42;-5.99;-70.29;11.83;-76.69;0
-6.35;-12.63;-5.18;-48.88;18.77;-62.22;0
-5.99;-12.75;-6.02;-31.31;11.52;-47.95;0
-4.28;-12.76;-7.22;-19.73;5.35;-40.46;0
-3.34;-13.52;-6.91;-9.53;12.7;-36.69;0
-2.62;-13.47;-5.21;5.66;23.53;-26.07;0
-3.25;-12.82;-3.53;26.63;39.62;-12.35;0
-5.02;-11.63;-2.32;57.21;61.06;7.57;0
-7;-10.6;-1.09;93.2;79.55;32.52;0
-8.15;-10.32;-1.58;136.54;88.59;59.93;0
-7.99;-12.07;-4.19;164.39;76.45;89.05;0
-6.41;-16.92;-6.55;166.79;35.26;105.44;0
-4.96;-18.98;-10.24;173.83;-22.33;118.2;0
-4.17;-16.98;-15.6;181.98;-108.03;129.99;0
-1.96;-14.36;-19.08;168.56;-131.91;136.34;0
2.68;-12.57;-16.23;127.08;-103.82;140.52;0
3.11;-15.38;-9.28;94.22;-63;136.01;0
0.07;-18.34;-7.59;112.15;-44.75;141.7;0
0.35;-18;-12.87;136.08;-9.67;152.03;0
2.28;-14.79;-16.2;121.7;25.06;146.48;0
2.87;-12.11;-14.93;87.27;32.9;133.67;0
3.13;-10.91;-11.8;68.72;11.29;119.37;0
3.15;-9.59;-10.76;65.78;-29.97;103.8;0
3.34;-7.55;-11.83;59.82;-52.93;89.63;0
2.78;-6.17;-12.58;46.82;-66.9;81.35;0
3.22;-4.93;-12.33;31.92;-75.34;76.44;0
4.44;-4.03;-12.13;21.32;-83.19;65.71;0
5.03;-3.11;-12.29;13.36;-89.42;45.76;0
6.3;-0.73;-13.07;10.36;-68.21;30.35;0
5.62;-0.71;-12.9;7.92;-45.33;12.21;0
5.8;-0.14;-13.85;-8.04;-19.99;-20.79;0
4.42;-0.27;-12.29;-30.76;-0.17;-63.27;0
1.91;-0.01;-6.55;-38.6;-80.86;-86.56;0
1.34;-1.91;-4.89;-34.5;-209.03;-91.76;0
1.3;-4.08;-5.53;-40.21;-246;-92.97;0
-2.88;-9.27;-3.91;-69.33;-246;-72.3;0
-13.25;-19.55;0.95;-77.37;-38.81;-39.66;0
-19.37;-19.55;-1.3;-54.77;228.47;18.24;0
-9.29;-18.37;-4.01;-41.76;209.53;57.95;0
-7.88;-11.39;-2.19;-34;126.51;80.87;0
-4.91;-8.45;-6.36;-26.89;125.46;74.96;0
-0.05;-11.97;-11.05;0.03;166.83;57.2;0
4.73;-19.55;-17.09;5.19;102.54;24.08;0
6.11;-13.98;-15.11;-31.83;-42.68;8.86;0
4.6;-9.93;-6.58;-40.08;-116.91;22.28;0
6.73;-6.38;-7.49;-6.87;-67.62;33.56;0
10.2;-0.98;-11.69;7.13;-1.5;13.99;0
12.23;0.29;-18.09;-11.18;37.12;-37.04;0
12.05;-1.41;-22.76;-63.47;45.41;-93.03;0
7.11;-8.39;-21.6;-127.89;60.21;-137.2;0
-0.77;-19.55;-16.47;-156.89;102.88;-136.2;0
-8.51;-19.55;-10.77;-134.23;127.12;-95.5;0
-9.89;-14.17;-8.32;-100.34;128.15;-54.7;0
-5.82;-10.51;-9.98;-91.66;104.9;-37.46;0
-2.2;-8.64;-10.41;-88.71;65.26;-39.33;0
0.06;-7.16;-11.64;-90.31;37.4;-48.14;0
1.78;-6.99;-12.67;-96.61;42.02;-68.76;0
1.49;-7.79;-12.22;-98.37;51.81;-90.75;0
0.52;-9.56;-11.47;-92.02;55.27;-103.31;0
-0.09;-11.09;-10.78;-80.5;46.75;-109.83;0
-1.09;-10.82;-10.39;-72.93;25.63;-104.66;0
-1.01;-10.57;-10.83;-74.44;12.19;-101.4;0
-3.44;-10.27;-9.07;-81.55;8.12;-85.24;0
-4;-9.46;-7.03;-83.39;26.51;-77.33;0
-4.82;-9.44;-4.95;-68.4;51.09;-68.38;0
-5.02;-10.59;-5.09;-42.79;63.51;-60.23;0
-4.51;-11.64;-6.71;-21.54;61.18;-48.66;0
-2.89;-11.13;-7.56;-12.47;50.45;-38.62;0
-1.95;-12.51;-7.17;-6.4;41.08;-32.89;0
-2.83;-14.08;-5.77;7.76;48.25;-28.08;0
-5.21;-12.77;-3.8;34.1;65.73;-19.53;0
-7.44;-11.41;-2.49;65.1;82;-1.16;0
-7.92;-10.25;-2.57;91.34;84.93;19.9;0
-6.6;-10.08;-3.95;117.44;75.64;38.09;0
-4.59;-10.62;-6.97;144.01;57.06;50.27;0
-5.22;-13.03;-10.61;149.08;14.24;58.86;0
-6.68;-15.56;-13.76;141.86;-35.74;77.29;0
-8.46;-16.29;-16;139.37;-98.22;95.6;0
-7.4;-13.1;-15.65;125.23;-143.93;115.44;0
-2.34;-11.07;-13.28;95.92;-127.98;137.58;0
1.31;-14.2;-8.53;81.81;-114.27;146.72;0
2;-18.06;-6.74;110.32;-130.66;147.92;0
2.01;-19.55;-11.6;138.99;-122.61;151.89;0
3.27;-17.69;-15.66;131.99;-56.45;144.31;0
4.17;-14.22;-14.8;102.03;-13.4;133.79;0
4.11;-12.25;-11.92;79.03;-5.76;121.56;0
4.37;-11.62;-10.5;71.36;-8.94;110.29;0
4.06;-10.32;-10.81;63.4;-14.23;95.66;0
3.61;-8.95;-11.24;53.08;-24.29;80.87;0
3.56;-7.13;-11.75;41.15;-27.36;70.89;0
3.5;-5.68;-11.69;32.11;-35.48;61.87;0
4.28;-4.63;-11.48;23.13;-36.78;53.67;0
4.69;-3.41;-11.9;17.3;-36.2;43.15;0
6.06;-1.22;-12.84;20.91;-5.01;36.77;0
5.02;-1.8;-12.3;15.88;7.82;8.72;0
4.47;-1.34;-12.16;3.19;24.71;-35.02;0
1.27;-0.47;-7.66;-5.08;-54.58;-71.8;0
-0.32;-0.25;-5.81;-6.54;-203.25;-82.85;0
-0.4;-0.74;-7.32;-15.19;-246;-84.95;0
-2.11;-2.1;-8.31;-53.11;-246;-69.02;0
-6.22;-6.48;-2.49;-79.74;-171.85;-37.43;0
-13.65;-15.28;-3.65;-72.73;100.44;-8.97;0
-14.41;-19.55;-8.43;-73.95;254.27;11.89;0
-10.16;-19.55;-6.5;-78.44;206.07;38.21;0
-8.32;-16.43;-0.8;-51.22;110.41;64.55;0
-5.97;-11.2;-4.98;-22.95;99.54;82.41;0
-0.9;-12.57;-10.78;6.61;127.58;78.49;0
4.83;-19.28;-16.37;2.98;54.06;43.67;0
7.1;-11.59;-14.95;-43.81;-84.45;11.92;0
5.71;-9.86;-3.25;-56.28;-152.28;18.33;0
5.44;-7.96;-6.32;-14.98;-85.63;26.11;0
7.83;-3.75;-11.14;-1.7;-12.98;13.65;0
10.15;-1.32;-16.51;-24.79;18.48;-27.5;0
11.24;-3.29;-19.53;-70.34;27.49;-80.31;0
8.15;-8.48;-17.96;-112.6;50.84;-125.44;0
1.94;-15.71;-14.33;-121.95;85.54;-128.76;0
-4.13;-17.31;-12.22;-102.86;111.11;-99.31;0
-6.96;-13.06;-12.91;-92.73;118.39;-66.55;0
-5.55;-9.79;-12.69;-99.88;109.03;-52.1;0
-3.94;-8.46;-11.94;-107.37;83.58;-53.65;0
-2.2;-8.02;-11.23;-108.23;55.47;-60.12;0
-0.06;-7.55;-10.55;-107.93;42.12;-76.7;0
0.02;-7.14;-10.16;-104.66;37.8;-98.17;0
-1.19;-7.77;-10.02;-93.05;32.33;-107.75;0
-1.98;-9.28;-10.38;-79.86;16.47;-107.13;0
-2.26;-10.97;-10.61;-72.79;-5.26;-97.73;0
-0.66;-11.38;-9.84;-68.86;-21.49;-90.37;0
-1.65;-10.85;-9.22;-70.15;-21.52;-78.63;0
-1.84;-10.18;-8.48;-76.6;3.81;-70.88;0
-2.7;-10.04;-7.19;-78.31;38.58;-65.48;0
-4.27;-11.51;-5.51;-62.27;65.45;-59.56;0
-5.01;-11.97;-6.34;-38.15;70.33;-50.11;0
-4.85;-12.42;-6.1;-21.88;61.93;-39.12;0
-3.58;-13.83;-6.09;-10.27;58.06;-31.15;0
-3.25;-14.14;-4.86;7.28;59.72;-25.17;0
-4.8;-12.76;-4.27;34.18;69.77;-16.17;0
-5.88;-11.05;-4.18;64.66;83.81;0.09;0
-6.29;-10.17;-4.59;95.27;92.92;17.77;0
-7.27;-11;-5.67;126.11;86.43;39.54;0
-9.24;-13.68;-7.82;138.88;55.73;64.21;0
-9.69;-17.07;-9.16;138.24;-5.26;84.43;0
-8.47;-16.54;-11.7;146.93;-79.56;100.42;0
-6.11;-14.51;-14.64;149.57;-145.17;115.88;0
-1.97;-12.09;-15.77;131.62;-150.62;126.57;0
1.85;-11.9;-13.86;105.05;-136.88;132.28;0
2.49;-15.01;-9.91;99.49;-131.26;137.02;0
1.11;-19.23;-10.03;123.84;-104.52;140.78;0
1.62;-18.62;-13.62;129.5;-48.97;145.62;0
3.54;-14.31;-14.9;107.16;3.7;144.17;0
4.05;-11.88;-13.61;77.34;11.58;134.52;0
4.62;-11.01;-11.49;59.9;5.79;119.83;0
4.77;-9.84;-10.57;58.01;-5.69;102.26;0
3.95;-8.22;-11.38;54.47;-26.93;85.15;0
4.1;-6.56;-12.32;44.55;-31.69;72.23;0
3.87;-4.92;-12.41;32.4;-38.07;60.45;0
3.79;-3.86;-11.96;22.95;-44.43;50.09;0
4.47;-2.9;-12.57;17.56;-43.53;36.65;0
5;-1.08;-13.41;15.6;-19.62;30.53;0
4.78;-1.58;-13.6;14.14;2.52;15.35;0
4.19;-1.38;-13.89;-0.03;22.79;-20.75;0
1.91;-1;-9.87;-17.58;-24.23;-58.73;0
0.69;-0.81;-5;-22.25;-169.51;-76.3;0
0.96;-3.08;-4.98;-20.91;-246;-83.66;0
-2.04;-6.57;-3.64;-39.47;-246;-78.54;0
-6.79;-14.37;1.23;-47.25;-246;-56.96;0
-19.7;-19.55;-4.74;-49.94;87.58;-9.64;0
-11.79;-19.55;-7.24;-59.13;252.67;53.99;0
-6.27;-12.72;-4.01;-52.38;219.85;73.29;0
-5.4;-8.9;-6.2;-42.81;205.97;78.12;0
-2.08;-6;-11.42;-21;254.27;79.36;0
7.14;-14.29;-15.63;-21.48;154.8;53.68;0
14.3;-16.73;-15.14;-57.02;-36.84;-16.37;0
9.75;-11.73;-4.59;-58.75;-154.92;-40.85;0
-0.18;-11.31;-7.37;-30.08;-84.55;-21.55;0
-0.83;-8.09;-11.6;-11.97;9.33;5.25;0
4.88;-4.1;-14.89;-18.59;40.38;-12.8;0
8.44;-2.95;-18.61;-54.92;14.67;-52.04;0
9.09;-6.87;-19.63;-100.67;8.83;-102.83;0
3.41;-12.39;-17.08;-123.97;36.58;-119.17;0
-1.03;-14.42;-13.97;-126.85;76.96;-105.26;0
-4.51;-13.36;-10.78;-113.05;112.89;-77.57;0
-3.68;-11.45;-9.56;-94.78;123.4;-59.8;0
-2.46;-10.2;-9.62;-80.48;99.64;-58.07;0
-1.53;-9.31;-10.53;-69.63;64.9;-60.88;0
-0.93;-8.09;-12.31;-70.72;48.82;-65.68;0
-0.44;-7.62;-12.34;-79.84;53.88;-74.2;0
-0.32;-8.36;-11.77;-84.17;66.55;-85.1;0
-0.9;-9.29;-11.64;-80.09;75.2;-89.14;0
-1.75;-10.29;-11.37;-76;67.25;-86.08;0
-1.43;-11.39;-10.43;-72.33;44.41;-87.71;0
-3.51;-11.61;-9.37;-70.99;16.99;-81.46;0
-4.23;-10.32;-7.79;-67.9;4.72;-73.24;0
-4.62;-10.01;-7.02;-62.3;12.09;-65.32;0
-5.12;-11.31;-6.84;-48.34;21.35;-59.75;0
-4.85;-12.59;-7.25;-30.92;22.19;-52.43;0
-3.39;-11.22;-6.49;-18.6;26.68;-47.9;0
-2.93;-14.36;-5.28;-8.26;34.5;-40.27;0
-3.28;-16.13;-3.67;13.24;51.19;-28.19;0
-4.23;-13.46;-2;46.98;75.6;-10.89;0
-4.87;-11.19;-1.69;82.02;92.34;7.18;0
-5.21;-9.77;-2.88;112.56;103.78;22.1;0
-5.61;-9.6;-5.85;137.71;107.7;38.62;0
-7.34;-12.63;-9.51;142.73;74.51;59.05;0
-9.07;-17.99;-12.78;138.49;5.21;80.75;0
-9.02;-17.02;-13.72;143.92;-78.07;99.91;0
-6.38;-13.43;-14.48;140.02;-127.38;117.89;0
-1.48;-11.66;-14.09;116.63;-129.39;136.88;0
1.38;-14.15;-11.92;92.03;-111.73;138.89;0
2.49;-16.87;-10.15;105.28;-109.13;136.99;0
2.72;-17.56;-13.19;126.24;-83.75;136.79;0
4.09;-15.53;-16.58;116.58;-37.09;134.83;0
4.58;-12.4;-16.58;84.69;-9.18;122.84;0
3.81;-10.55;-13.95;55.97;-6.68;111.18;0
3.56;-9.47;-11.9;44.5;-15.1;101.39;0
3.59;-8.5;-11.46;40.93;-32.57;87.38;0
3.77;-7.46;-11.74;34.98;-44.56;72.55;0
3.36;-6.14;-11.79;28.07;-58.38;61.82;0
3.39;-4.93;-11.6;22.03;-74.27;53.22;0
3.8;-3.78;-11.99;19.47;-92.17;44.89;0
4.3;-2.22;-12.76;22.89;-88.91;38.39;0
4.47;-1.58;-13.78;23.24;-74.07;29.16;0
5.99;-0.95;-14.38;4.06;-53.78;6.57;0
4.98;-2.56;-9.95;-15.42;-41.6;-30.61;0
2.19;-3.09;-6.17;-14.69;-112.74;-47.56;0
0.36;-4.87;-4.36;-11.92;-202.19;-55.43;0
-1.23;-7.4;-2.79;-8.37;-245.55;-48.28;0
-5.14;-10.76;-0.97;-7.34;-175.46;-24.83;0
-9.65;-15.84;-6.99;-12.93;52.63;-8.48;0
-11.39;-16.24;-8.89;-26.95;230.48;17.73;0
-7.67;-13.72;-8.76;-42.95;238.7;45.77;0
-6.91;-10.89;-7.43;-61.63;163.9;50.07;0
-6.82;-10.04;-9.47;-64.39;145.45;55.62;0
-2.38;-15.13;-13.41;-42.97;152.64;50.08;0
1.71;-19.55;-14.89;-27.34;80.93;15.79;0
3.53;-17.25;-6.97;-8.91;-91.81;7.18;0
3.8;-11.14;-3.64;19.27;-176.84;26.43;0
7.85;-5.61;-7.29;15.97;-115.49;32.53;0
10.76;-1.01;-11.65;3.72;-34.2;11.81;0
11.4;1.4;-18.05;-16.56;7.29;-32.66;0
11.07;0.07;-24.23;-63.45;35.06;-82.39;0
7.68;-6.13;-24.22;-134.92;68.67;-121.88;0
2.35;-16.56;-17.73;-178.91;113.22;-128.62;0
-4.15;-19.55;-10.37;-166.57;149.09;-101;0
-7;-17.67;-5.83;-109.2;148.03;-78.42;0
-5.87;-12.05;-8.2;-72.86;110.24;-65.72;0
-4.84;-8.71;-10.82;-70.69;57.39;-58.44;0
-2.49;-7.13;-12.01;-82.13;12.38;-61.26;0
-1.15;-6.61;-12.37;-95.74;-1.47;-71.58;0
-0.2;-7.05;-11.32;-99.89;1.67;-89.85;0
-0.25;-8.25;-10.27;-91.12;2.88;-103.17;0
-0.91;-9.9;-10.35;-80.47;2.42;-104.87;0
-1.35;-11.61;-10.44;-72.08;-5.15;-101.63;0
-2.32;-12.5;-9.57;-68.84;-22.26;-92.51;0
-2.95;-12.24;-8.74;-71.89;-26.8;-76.42;0
-3.99;-11;-7.06;-69.84;-7.27;-64.8;0
-3.57;-9.68;-6.4;-65.96;23.49;-61.4;0
-3.96;-10.17;-5.67;-57.13;49.83;-59.63;0
-4.01;-11.69;-5.73;-41.92;54.4;-51.74;0
-3.36;-12.26;-5.17;-23.83;46.8;-38.41;0
-3.08;-13.46;-4.09;-2.82;46.67;-25.92;0
-4.08;-14.8;-3.39;26.41;60.51;-13.81;0
-5.78;-12.71;-2.72;60.9;78.73;5.28;0
-5.24;-10.14;-2.61;86.22;91.25;25.12;0
-3.3;-9.32;-3.77;112;101.44;38.08;0
-2.36;-9.63;-6.44;138.01;101.45;45.02;0
-4.04;-12.66;-10.36;148.26;73.94;52.9;0
-7.45;-17.35;-14.13;140.43;18.73;66.34;0
-10.17;-17.49;-15.37;133.67;-57.01;80.92;0
-9.1;-13.77;-15.05;126.66;-122.46;100.25;0
-3.9;-11.04;-14.2;106.39;-128.47;128.84;0
0.77;-13.1;-10.68;88.6;-125.91;143.08;0
2.29;-16.44;-8.22;104.98;-139.08;146.8;0
2.24;-18.45;-11.23;132.34;-117.34;151.73;0
3.59;-17.41;-14.86;126.19;-57.52;145.25;0
4.5;-14.01;-15.1;98.47;-4.81;133.44;0
3.61;-12.08;-12.87;71.08;7.09;122.17;0
3.17;-10.95;-10.66;59.39;1.58;113.6;0
2.95;-10.05;-10.64;52.78;-7.7;102.12;0
2.78;-8.75;-11.39;43.27;-19.55;89.14;0
2.69;-7.19;-11.6;32.88;-25.25;79.33;0
2.88;-6.07;-11.58;24.76;-32.87;73.38;0
3.25;-4.98;-11.24;19.6;-42.3;64.86;0
4.45;-3.92;-11.55;18.89;-53.42;53.8;0
5.45;-2.23;-12.11;20.72;-42.75;41.57;0
5.88;-1.31;-12.21;25.36;-17.55;32.47;0
5.45;-1.51;-12.56;23.41;-2.04;2.52;0
3.54;-1.81;-11.18;16.02;-1.2;-43.14;0
0.4;-1.35;-7.63;1.62;-87.18;-68.41;0
-0.54;-2.45;-5.79;-9.21;-199.42;-78.82;0
-1.05;-4.42;-5.05;-20.22;-246;-79.17;0
-1.81;-7.78;-3.45;-38.8;-246;-67.18;0
-8.2;-14.92;-2.25;-45.15;-72.71;-51.44;0
-16.24;-19.55;-6.66;-59.75;197.26;-18.43;0
-12.77;-18.47;-8.11;-67.11;243.58;31.95;0
-9.41;-12.29;-4.86;-64.79;170.12;63.34;0
-7.61;-9.14;-4.89;-47.24;138.71;75.22;0
-3.18;-6.68;-11.88;-24.63;202.76;76.72;0
4.65;-12.51;-14.81;-15.15;144.41;62.64;0
14.63;-19.55;-15.05;-48.66;-24.7;-7.12;0
12.09;-16.02;0.56;-45.11;-200.68;-47.87;0
0.06;-13.72;-4.27;13.71;-113.32;-22.92;0
-0.35;-8.85;-14.33;33.21;-6.67;24.31;0
5.5;-4.12;-18.91;4.04;35.01;20.72;0
9.69;-1.99;-20.36;-49.55;43.91;-15.34;0
12.39;-4.7;-19.22;-101.76;59.41;-75.17;0
7.98;-8.46;-17.24;-126.83;93.1;-115.69;0
2.53;-13.38;-15.31;-130.34;130.25;-126.85;0
-3.39;-15.99;-13.35;-121.87;158.12;-111.86;0
-6.39;-13.87;-11.58;-111.74;155.29;-89.9;0
-6.16;-11.44;-10.54;-103.43;122.34;-81.32;0
-4.77;-9.57;-10.55;-94.49;80.65;-72.74;0
-2.71;-8.34;-11.07;-90.13;53.21;-71.62;0
-0.95;-7.65;-11.4;-91.25;41.29;-83.95;0
-0.52;-7.22;-11.31;-88.52;39.49;-99.58;0
-0.64;-7.59;-11.24;-79.84;35.64;-108.08;0
-1.61;-9.11;-11.57;-71.81;23.61;-110.94;0
-2.29;-10.17;-11.66;-69.82;6.21;-111.59;0
-2.52;-10.67;-10.92;-72.86;-14.2;-109.26;0
-3.14;-9.85;-9.9;-78.12;-20.29;-105.93;0
-4.01;-10.8;-8.76;-86.18;-7.07;-90.79;0
-4.5;-11.09;-6.27;-79.12;7.8;-78.07;0
-4.78;-12.32;-4.58;-51.72;11.71;-67.95;0
-4.53;-13.02;-4.96;-23.73;10.17;-59.78;0
-3.81;-13.46;-5.89;-10.82;21.45;-49.77;0
-2.69;-13.57;-6.21;-4.28;42.25;-36.72;0
-2.17;-13.26;-5.5;13.72;54.71;-22.82;0
-3.33;-13.33;-4.53;40.6;69.43;-9.64;0
-5.75;-12.74;-3.39;75.97;90.02;10.04;0
-7.69;-12.5;-3.32;118.27;108.72;34.17;0
-10.01;-12.95;-5.73;152.04;97.8;63.28;0
-10.91;-14.84;-8.5;154.63;53.54;94.15;0
-8.84;-15.26;-10.77;144.91;-3.25;121.07;0
-5.07;-14.23;-11.68;137.89;-50.92;142.34;0
-1.44;-14.22;-13.07;137.3;-99.48;157.45;0
2.93;-14.13;-14.49;135.14;-134.27;157.77;0
3.59;-14.97;-13.29;124.27;-112.68;144.41;0
1.61;-17.24;-11.74;122.65;-82.84;133.41;0
0.19;-18.48;-12.23;131.38;-45.87;139.3;0
0.62;-15.44;-14.25;123.41;-7.06;151.86;0
2.08;-13.38;-14.57;98.05;14.05;151.11;0
3.4;-12.03;-12.73;78.78;4.44;138.09;0
3.8;-11.05;-11.57;75.27;-25;120.78;0
4.53;-9.27;-12.22;73.19;-44.34;102.1;0
3.9;-7.48;-13.18;65.99;-56.67;89.16;0
3.08;-6.13;-13.55;54.25;-64.66;82.42;0
3.45;-5.13;-13.39;40.35;-73.87;76.37;0
4.33;-4.13;-13.39;25.87;-77.47;66.14;0
5.47;-2.65;-13.6;13.25;-74.47;49.88;0
6.18;-0.84;-14.29;11.32;-47.01;43.05;0
5.77;-1.02;-14.46;5.16;-27.59;16.81;0
5.93;-0.14;-14;-15.5;-2.39;-28.56;0
4.74;0.45;-9.11;-38.28;-68.55;-75.57;0
4.2;0.4;-5.33;-39.8;-194.76;-99.37;0
3.14;-2.38;-4.57;-44.02;-246;-110.97;0
-1.96;-6.11;-1.05;-52.34;-246;-101.71;0
-9.14;-11.99;1.1;-62.8;-179.23;-71;0
-19.7;-19.55;1.53;-49.5;107.08;-4.93;0
-9.21;-19.55;-6.57;-48.91;242.93;51.86;0
-5.86;-14.99;-5.07;-50.57;194.6;74.02;0
-5.32;-8.71;-7.53;-45.38;178.57;91.32;0
-1.56;-6.74;-14.38;-32.66;244.22;83.73;0
4.46;-15.62;-18.64;-37.53;190.46;40.58;0
6.9;-19.55;-13.98;-75.05;0.9;-25.02;0
-0.15;-19.14;1.41;-15.91;-166.21;-11.33;0
-3.08;-12.97;-7.87;32.96;-97.45;45.47;0
6.06;-5.26;-13.96;27.93;-59.84;63.79;0
10.65;-0.48;-18.39;2.97;-47.78;26.08;0
12.06;0.57;-22.3;-44.61;-41.32;-34.21;0
13.04;-2.62;-22.5;-105.02;-22.77;-101.67;0
7.48;-8.97;-18.22;-149.37;13.55;-136.29;0
1.46;-19.25;-11.81;-152.86;81.84;-129.56;0
-4.9;-19.55;-7.81;-115.49;133.98;-92.81;0
-4.32;-13.61;-7.42;-83.56;123.63;-69.26;0
-3.19;-9.43;-9.58;-80.05;89.27;-62.57;0
-1.87;-8.39;-10.95;-87.13;62.83;-61.19;0
-1.47;-7.65;-11.83;-95.93;59.03;-67.03;0
-1.01;-6.97;-12.32;-101.45;71.13;-81.17;0
-1.54;-6.63;-11.13;-95.8;76.5;-96.08;0
-2.13;-7.39;-10.89;-83.29;65.25;-106.5;0
-2.98;-9.3;-10.43;-78.67;38.85;-106.16;0
-3.57;-10.71;-9.46;-84.53;12.35;-96.88;0
-2.82;-11.5;-8.32;-81.79;-1.55;-90.97;0
-4.18;-11.99;-8.32;-71.19;-5.3;-76.84;0
-4.97;-11.02;-8.85;-63.18;-1.35;-66.1;0
-5.39;-10.9;-8.1;-56.52;6.8;-59.14;0
-4.83;-12.08;-7.06;-50.73;14.22;-54.61;0
-3.6;-11.94;-4.93;-40.71;18.41;-49.05;0
-2.78;-13.4;-2.88;-17.21;28.02;-41.43;0
-3.38;-14.11;-3.05;14.95;39.5;-28.14;0
-5.29;-13.08;-3.35;42.27;58.64;-6.14;0
-6.56;-11.13;-2.55;69.85;79.61;17.08;0
-7.12;-9.35;-2.05;98.95;94.76;36.73;0
-6.33;-8.18;-2.64;129.58;98.52;55.57;0
-5.05;-9.49;-4.87;153.56;80.48;72.28;0
-5.23;-15.12;-8.61;158.24;31.17;87.39;0
-6.72;-19.55;-13.75;164.43;-68.98;104;0
-8.53;-18.78;-16.57;180.37;-142.57;110.04;0
-7.4;-14.94;-17.09;164.81;-161.57;129.63;0
0.66;-12.91;-16.1;114.8;-119.59;151.92;0
2.85;-15.61;-9.25;86.91;-97.4;149.89;0
2.55;-18.15;-6.43;129.95;-86.44;154.41;0
4.24;-18.26;-12.91;158.11;-43.49;159.3;0
5.53;-16.92;-16.95;135.95;20.77;145;0
4.17;-13.33;-15.64;96.01;42.69;125.49;0
2.91;-11.51;-13.11;67.46;39.48;115.84;0
2.32;-10.82;-11.5;55.61;21.26;102.9;0
2.05;-9.33;-11.48;49.26;-1.41;87.7;0
2.16;-7.87;-12.04;40.93;-15.13;77.82;0
1.78;-6.03;-11.95;29.05;-34.42;73.29;0
2.42;-5.13;-11.64;17.76;-54.46;67.5;0
3.62;-3.88;-11.91;9.46;-71.94;53.75;0
5.56;-2.5;-12.5;5.83;-66.62;42.37;0
7.66;-0.72;-12.79;12.52;-25.62;36.08;0
6.84;-1.47;-13.3;5.55;-4.96;-1.7;0
5.41;-1.66;-10.95;1.52;19.81;-53.54;0
0.06;-0.14;-6.69;-6.98;-86.41;-86.56;0
-1.33;-0.91;-4.13;-10.62;-243.65;-99.32;0
-0.7;-2.38;-5.56;-18.4;-246;-96.75;0
-2.01;-5.43;-5.83;-52.86;-246;-75.66;0
-4.89;-10.22;-4.05;-89.17;-165.58;-29.82;0
-11.53;-18.47;-3.53;-94.62;119.45;-10.83;0
-9.15;-19.55;-6.62;-76.32;252.06;19.52;0
-6.64;-15.3;-6.24;-66.9;219.01;33.04;0
-3.13;-10.71;-3.75;-55.73;180.69;36.74;0
-4.35;-8.6;-6.9;-38.58;210.51;37.99;0
-1.37;-9;-11.09;-13.41;217.29;41.55;0
4.07;-18.52;-16.63;-28.87;97.74;14.54;0
6.54;-16.18;-15.07;-65.61;-69.84;-26;0
-1.22;-13.63;-4.68;-56.22;-120.04;-9.73;0
-4.08;-12.5;-6.4;-13.16;-50.59;39.18;0
4.21;-6.9;-10.18;15.82;-17.4;47.3;0
8.77;-1.64;-15.98;1.76;-24.36;12.96;0
10.69;-1.16;-19.83;-40.08;-24.88;-37.61;0
11;-4.65;-20.67;-87.01;0.77;-99.28;0
6.16;-9.86;-18.18;-120.46;43.99;-128.3;0
1.7;-16.77;-14.47;-131.51;96.84;-118.72;0
-3.27;-18.56;-11.17;-113.61;131.2;-91.18;0
-4.52;-13.71;-10.41;-91.66;126.75;-67.48;0
-3.8;-10.22;-11.55;-91.24;99.46;-61.53;0
-1.97;-8.99;-11.97;-98.16;70.25;-61.03;0
-0.15;-8.2;-11.76;-105.2;63.45;-68.21;0
1.13;-7.92;-10.52;-103.85;72.67;-85.82;0
1.27;-7.95;-8.97;-89.75;77.89;-101.96;0
0.4;-8.62;-9.14;-72.6;74.22;-110.81;0
-0.68;-10.18;-9.76;-62.2;64.46;-118.6;0
-2.27;-11.3;-10.53;-56.22;51.22;-117.4;0
-2.56;-11.64;-10.95;-58.7;40.77;-114.07;0
-4.91;-10.63;-11.39;-73.37;27.74;-101.79;0
-5.31;-11.07;-10.21;-93.21;26.27;-88.34;0
-5.58;-11.12;-5.84;-83.32;38.39;-80.75;0
-6.55;-12.11;-4.48;-45.34;42.71;-72.94;0
-6.7;-12.4;-6.17;-24.07;22.93;-67.05;0
-5.86;-12.63;-6.66;-20.21;9.26;-56.08;0
-5.13;-14.39;-4.78;-8.31;21.79;-37;0
-3.98;-14;-3.34;20.11;41.93;-18.04;0
-3.74;-12.61;-3.53;54.32;68.48;-2.44;0
-4.73;-10.99;-4.48;82.62;88.32;13.58;0
-5.85;-10.38;-5.47;110.78;103.36;30.67;0
-7.83;-11.49;-7.74;133.54;92.38;51.54;0
-9.98;-14.9;-10.13;131.19;44.74;73.34;0
-9.06;-16.1;-11.4;125.75;-30.89;97.63;0
-6.42;-14.64;-11.86;133.6;-106.64;116.47;0
-2.3;-14.72;-13.27;138.05;-149.62;128.28;0
2.54;-12.36;-13.71;124.14;-130.46;132.8;0
3.93;-13.71;-11.8;106.69;-108.7;131.57;0
2.93;-16.38;-10.95;120.06;-96.68;133.12;0
1.63;-17.41;-13.62;133.11;-72.67;139.95;0
2.8;-16.09;-16.32;118.89;-11.93;141.9;0
3.55;-13.91;-15.21;86.78;19.99;135.62;0
3.43;-11.94;-12.74;66.21;19.22;128.05;0
3.19;-11.18;-11.64;56.66;-7.34;121.42;0
3.53;-9.89;-11.49;51.62;-29.74;113.01;0
3.97;-8.83;-12.05;45.61;-39.94;104.01;0
3.66;-7.42;-11.83;37.64;-51.75;95.5;0
3.85;-6.23;-11.84;33.7;-61.04;85.71;0
4.38;-4.93;-11.71;30.5;-65.95;73.2;0
4.92;-3.44;-12.1;27.02;-69.26;57.96;0
6.46;-1.14;-13.09;25.37;-47.31;47.2;0
6.2;-0.71;-13.46;24.53;-11.18;33.96;0
5.35;-0.96;-14.06;8.09;18.41;2.43;0
2.78;-0.66;-10.1;-5.37;13.58;-37.82;0
0.04;-1.17;-4.75;-6.79;-113.1;-63.18;0
-1.1;-2.88;-3.06;-1.65;-246;-73.85;0
-2.49;-6.07;-2.87;-3.92;-246;-73.46;0
-4.86;-10.35;-2.79;-21.31;-246;-56.53;0
-12.64;-17.76;-6.33;-46.14;-23.48;-30.48;0
-13.05;-19.54;-8.37;-64.18;223.17;6.35;0
-8.6;-15.39;-8.9;-64.66;239.13;41.75;0
-7.8;-12.13;-5.83;-61.47;194.13;68.3;0
-7.03;-11.41;-10.86;-56.08;224.6;73.37;0
-2.22;-16.49;-12.5;-47.88;207.5;69.01;0
8;-19.55;-12.67;-49.21;13.7;19.96;0
13.21;-14.5;-4.4;-15.82;-208.64;-8.08;0
10.98;-9.46;-9.57;9.86;-171.15;-2.25;0
9.8;-5.23;-14.2;-8.08;-56.13;6.89;0
9.18;-1.6;-16.18;-23.47;10.65;-11.39;0
9.47;-0.17;-19.32;-45.55;29.56;-58.49;0
10.14;-3.61;-21.84;-95.37;39.01;-108.95;0
7.34;-10.6;-20.12;-143.57;51.06;-150.53;0
0.42;-19.55;-16.28;-163.82;86.1;-142.47;0
-4.79;-19.55;-9.8;-138.75;132.41;-101.4;0
-4.87;-14.25;-7.35;-97.03;158.87;-75.67;0
-3.83;-10.84;-9.74;-79.79;144.41;-65.27;0
-2.43;-8.79;-11.82;-81.26;101.42;-62.36;0
-1.83;-7.38;-13.03;-87.55;71.32;-65.03;0
-1.05;-6.63;-13.52;-93.11;60.06;-75.16;0
-0.6;-6.9;-12.89;-93.31;59.26;-91.22;0
-0.37;-8.02;-11.7;-81.6;53.04;-107.68;0
-1.08;-9.28;-11.08;-71.9;34.03;-111.29;0
-0.56;-10.26;-9.99;-68.12;13.53;-109.33;0
-0.94;-9.72;-9;-65.17;-4;-103.72;0
-1.73;-10.6;-9.29;-67.05;-5.68;-91.52;0
-3.09;-11.6;-9.13;-75.78;3.5;-81.88;0
-4.03;-11.95;-7.83;-81.53;18.15;-78.34;0
-4.81;-12.11;-5.86;-71.52;31.93;-77.58;0
-5.57;-13.04;-5;-40.94;36.62;-71.08;0
-5.8;-13.3;-7.05;-14.6;36.84;-60.34;0
-6.07;-12.98;-8.49;-6.67;28.82;-47.56;0
-6.51;-13.25;-6.85;-2.47;24.61;-27.82;0
-6.77;-12.41;-3.8;15.63;25.39;-2.27;0
-6.7;-11.73;-1.1;50.99;50.86;22.22;0
-6.71;-10.9;-0.64;93.93;76.35;45.92;0
-4.94;-10.82;-2.84;135.72;92.04;68.63;0
-3.26;-11.05;-7.23;160.67;78.36;82.76;0
-3.96;-14.21;-11.15;156.63;38.8;95.55;0
-4.27;-16.55;-13.01;145.18;-11.86;110.63;0
-4.58;-14.93;-13.93;137.66;-57.3;114.93;0
-2.14;-16.31;-14.51;120.61;-88.97;124.26;0
2.41;-14.28;-14.61;106.36;-86.48;130.32;0
2.74;-13.88;-11.85;96.46;-67.9;130.77;0
0.2;-16.28;-9.12;109.14;-53.17;140.89;0
-0.35;-17.65;-11.39;128.76;-32.54;157.41;0
1.16;-17.45;-15.91;119.15;-5.43;157.79;0
2.56;-14.54;-16.4;85.14;10.74;147.57;0
3.06;-12.33;-14.02;55.76;9.01;137.99;0
3.67;-11.21;-11.04;43.3;-15.53;131.71;0
3.67;-10.11;-9.93;47.24;-48.08;122.77;0
4.28;-8.96;-10.78;49.72;-65.01;109.15;0
3.83;-7.46;-11.7;45.74;-76.49;97.27;0
3.71;-6.36;-12.33;37.44;-81.27;89.65;0
3.81;-4.56;-12.22;29.1;-89.46;75.99;0
4.36;-3.25;-12.42;22.93;-95.63;58.9;0
5.96;-1.51;-13.06;18.82;-79.71;44;0
7.34;-0.55;-13.81;20.3;-33.46;32.63;0
5.93;-0.67;-14.79;9.37;0.82;6.02;0
4.2;-1.04;-12.52;-3.54;22.7;-32.04;0
1.9;-1.46;-6.31;-5.85;-79.92;-63.36;0
1.97;-2.65;-3.69;0.07;-230.64;-83.56;0
1.99;-5.77;-2.71;1.62;-246;-88.17;0
-2.92;-9.5;-4.69;-27.94;-246;-72.94;0
-8.36;-14.67;-4.65;-63.69;-107.44;-48.89;0
-16.86;-19.55;-5.4;-77.16;195.48;-1.33;0
-11;-17.07;-7.54;-74.72;254.27;44.6;0
-8.04;-11.38;-6.96;-75.14;238.54;69.44;0
-6.63;-9.92;-9.55;-77.02;242.76;67.74;0
-2.07;-7.27;-14.11;-69.17;247.5;46.63;0
4.02;-17.69;-13.8;-66.23;130.58;17.28;0
11.09;-19.55;-7.19;-63.98;-126.6;-39.21;0
7.43;-18.13;-2.98;15.59;-206.44;-40.88;0
0.78;-11.97;-11.17;25.58;-93.07;4.69;0
4.2;-5.5;-15.45;8.37;-3.89;28.3;0
6.24;-1.69;-17.76;-14.11;-0.59;4.94;0
9.23;-1.6;-20.01;-49.89;-7.98;-40.29;0
11.23;-4.88;-21.16;-97.03;4.33;-96.41;0
8.47;-9.32;-18.97;-139.79;29.82;-135.79;0
3.3;-14.29;-13.77;-157.17;69.53;-137.04;0
-3.3;-17.83;-8.24;-127.66;124.16;-106.66;0
-4.62;-14.2;-6.4;-89.44;149;-87.26;0
-4.42;-10.84;-8.15;-75.95;124.84;-74.75;0
-3.5;-9.51;-10.68;-78.57;93.98;-65.32;0
-2.31;-7.78;-11.95;-82.06;77.24;-66.11;0
-1.67;-6.72;-13.12;-84.56;76.48;-74.59;0
-1.82;-5.99;-12.73;-82.76;74.85;-88.03;0
-2.11;-6.16;-11.81;-76.37;67.5;-100;0
-2.55;-7.56;-11.1;-70.01;51.95;-106.46;0
-2.52;-9.97;-10.81;-63.53;29.44;-106.82;0
-2.46;-11.13;-10.91;-57.53;-0.27;-103.52;0
-2.06;-9.59;-11.11;-58.4;-31.67;-95.25;0
-2.58;-10.22;-11.36;-73.11;-45.23;-88.64;0
-4.12;-11.92;-9.9;-87.85;-33.67;-82.94;0
-5.21;-13.97;-5.62;-74.95;-15.55;-75.82;0
-4.93;-14.65;-2.95;-38.47;-16.39;-62.63;0
-2.92;-14.86;-4.49;-11.93;-10.64;-48.81;0
-2.01;-14.39;-5.77;1.76;16.07;-40.81;0
-2.71;-14.08;-5.59;14.48;44.7;-24.04;0
-4.74;-13.61;-4.02;38.37;69.83;-0.71;0
-6.98;-12.85;-2.13;76.52;96.61;27.19;0
-7.96;-12.08;-2.55;118.98;116.67;54.45;0
-8.72;-12.43;-4.43;142.34;100.92;80.89;0
-7.18;-14.72;-5.75;146.46;60.81;103.45;0
-4.55;-16.58;-8.43;149.52;20.13;126.32;0
-2.27;-15.65;-11.22;150.67;-19.82;144.12;0
0.36;-14.23;-14.46;154.53;-65.61;149.57;0
4.25;-13.52;-17.16;152.39;-89.62;143.7;0
5.06;-13.66;-16.91;128.3;-43.79;125.32;0
2.12;-15.04;-15.17;94.75;27.01;117.39;0
-0.91;-15.53;-12.69;84.77;69.07;132.75;0
-0.76;-14.94;-12.96;79.01;75.06;147.5;0
0.31;-13.13;-12.6;63.6;51.54;146.84;0
1.18;-11.42;-11.4;45.74;22.65;133.98;0
1.38;-10.51;-10.9;38.3;-21.16;119.83;0
1.66;-9.07;-11.03;38.44;-65.03;112.09;0
2.8;-7.67;-12.36;38.27;-91.61;105.49;0
3.29;-6.61;-12.91;34.96;-105.79;97.66;0
4.01;-5.62;-13.28;29.08;-113.51;88.65;0
4.65;-3.76;-13.34;23.32;-115.33;71.28;0
5.54;-2.59;-13.22;16.95;-107.05;55.34;0
6.34;-1.78;-13.07;16.91;-85.86;41.17;0
5.16;-1.08;-12.21;20.3;-69.07;22.89;0
5.77;-1.2;-10.05;20.34;-47.92;-2.24;0
3.45;-1.64;-7.12;18.43;-80.46;-37.77;0
1.15;-3.07;-5.32;16.55;-173.8;-64.34;0
0.08;-6.26;-3.75;6.69;-246;-75.33;0
-2.95;-9.1;-5.73;-24.19;-246;-69.98;0
-7.15;-12.44;-5.87;-62.66;-103.9;-46.15;0
-11.35;-16.45;-5.65;-74.1;144.3;-18.75;0
-12.39;-13.73;-6.73;-62.81;234.27;18.54;0
-11.16;-12.2;-8.43;-53.72;237.95;56.17;0
-9.98;-11.24;-13.29;-51.31;244.12;80.86;0
-2.62;-9.98;-15.97;-64.61;185.79;74.06;0
7.87;-19.55;-13.29;-89.32;4.79;12.05;0
16.38;-19.55;0.78;-19.73;-199.56;-54.05;0
9.65;-14.12;-9.41;38.59;-172.86;-34.48;0
7.45;-8.88;-17.01;28.11;-61.76;0.87;0
6.71;-3.99;-19.02;-1.83;21.59;12.17;0
5.97;-0.02;-19.83;-44.35;34.19;-13.23;0
7.56;0.02;-20.61;-106.18;48.25;-51.88;0
8.81;-6.9;-18.3;-162.99;51.1;-106.46;0
4.54;-14.46;-12.81;-179.91;56.66;-142.28;0
-2.47;-19.55;-4.76;-125.69;87.44;-120.15;0
-2.79;-16.55;-3.96;-48.72;94.38;-100.71;0
-2.9;-10.38;-8.57;-26.73;83.84;-83.33;0
-1.98;-7.22;-12.87;-45.78;86.9;-72.05;0
-0.9;-6.79;-13.54;-71.2;89.82;-65.75;0
-0.13;-6.92;-13.32;-86.4;86.39;-64.89;0
-0.07;-7.63;-12.99;-86.48;84.94;-74.27;0
-0.81;-7.99;-12.75;-81.02;84.41;-86.6;0
-1.43;-8.59;-11.91;-71.62;80.07;-102.21;0
-2.8;-9;-10.89;-61.86;63.08;-107.69;0
-2.46;-9.5;-10.38;-53.58;36.63;-106.62;0
-2.2;-10.2;-10.01;-51.21;8.71;-91.88;0
-1.51;-11.09;-10.16;-50.76;-1.91;-81.79;0
-1.47;-11.47;-10.36;-52.94;-2.65;-75.82;0
-2.18;-12.48;-9.5;-63.05;7.93;-76.11;0
-4.2;-13.41;-7.02;-65.1;26.01;-79.78;0
-6.28;-14.04;-4.53;-44.49;33;-78.04;0
-7.78;-14.44;-3.85;-12.41;28.08;-66.09;0
-7.77;-13.88;-4.91;10.24;27.81;-50.17;0
-7.03;-13.75;-4.97;25.88;30.12;-30.97;0
-6.9;-13.15;-4.31;44.19;45.83;-6.91;0
-5.58;-11.88;-2.52;67.49;65.24;14.31;0
-5.34;-10.28;-1.5;93.03;83.49;31.65;0
-6.46;-9.3;-3.28;118.21;94.38;49.98;0
-7.14;-10.69;-6.49;127.98;85.09;67.2;0
-8.15;-14.97;-10.4;124.53;50.51;93.86;0
-6.23;-16.08;-13.66;124.7;-10.56;127.27;0
-5.25;-13.93;-15.38;126.32;-91.04;137.01;0
-2.94;-16.93;-16.41;109.34;-137.87;141.06;0
0.34;-17.58;-16.1;82.04;-98.55;137.17;0
1.36;-14.31;-11.35;74.89;-14.49;136.57;0
0.88;-16.52;-8.2;96.29;-11.68;154.05;0
2.08;-17.18;-11.84;107.16;-42.38;162.06;0
2.55;-15.37;-15.11;88.21;-33.28;152.07;0
1.94;-12.66;-14.01;62.38;-24.61;143.99;0
2.88;-10.98;-12.25;44;-24.92;135.77;0
3.89;-9.67;-11;37.83;-34.92;129.37;0
4.62;-8.53;-10.59;36.93;-54.95;122.95;0
4.88;-7.53;-11.49;34.7;-70.79;116.09;0
5.24;-6.65;-12.06;29.07;-81.92;107.99;0
5.28;-5.8;-12.16;22.71;-92.94;97.21;0
5.74;-4.65;-12.41;18.16;-99.39;82.16;0
6.95;-3.24;-12.82;15.55;-85.67;63.97;0
7.96;-1.99;-13.22;17.56;-38.49;51.25;0
5.78;-2.27;-12.52;14.22;-11.14;22.87;0
5.33;-2.05;-10.7;10.6;4.35;-11.01;0
2.68;-1.86;-7.23;6.67;-71.47;-46.73;0
1.69;-3.04;-5.15;7.41;-202.82;-73.05;0
2.29;-4.97;-5.69;2.65;-246;-82.34;0
-0.94;-6.5;-7.08;-20.34;-246;-84.82;0
-5.75;-8.76;-6.91;-58.51;-160.33;-64.33;0
-12.2;-14.58;-6.88;-89.82;83.02;-41.69;0
-14.75;-17.55;-7.24;-89.86;245.98;-1.58;0
-12.43;-15.22;-8.32;-81.47;254.27;52.73;0
-8.84;-13.5;-11.85;-75.16;254.27;73.69;0
-2.27;-13.13;-13.28;-76.34;254.27;63.56;0
9.19;-19.55;-7.71;-84.43;94.51;4.79;0
12.97;-19.55;2.11;-7.08;-165.97;-43.08;0
8.06;-11.26;-10.07;57.21;-168.21;-23.31;0
6.92;-7.85;-16.87;27.05;-65.13;3.35;0
6.59;-3.27;-18.27;-0.72;23.89;13.22;0
5.97;0.05;-19.7;-29.54;42.8;-11.72;0
7.77;-0.47;-22.12;-80.21;44.77;-61.17;0
9.52;-6.69;-21.81;-141.7;27.9;-125.79;0
6.6;-13.48;-17.24;-183.56;20.32;-163.01;0
-0.47;-19.55;-9.86;-175.28;62.67;-152.7;0
-3.89;-19.08;-2.36;-98.12;104.22;-114.43;0
-4.27;-12.46;-6.34;-42.59;97.68;-88.71;0
-2.57;-9.14;-11.29;-45.29;79.75;-78.21;0
-2.02;-8.13;-13.75;-68.22;64.64;-69.31;0
-0.93;-7.01;-14.65;-87.15;59.46;-69.79;0
-0.79;-6.79;-14.7;-98.24;61.31;-75.12;0
-0.6;-6.9;-12.85;-93.48;72.23;-86.1;0
-0.83;-7.54;-11.14;-81.14;71.61;-98.51;0
-0.95;-8.62;-10.27;-69.82;57.61;-106.14;0
-1.46;-10.06;-10.26;-63.37;39.93;-105.72;0
-1.74;-10.92;-10.21;-59.68;17.92;-100.31;0
-2.28;-10.8;-9.87;-60.21;0.1;-88.07;0
-3.65;-11.51;-9.42;-69.7;0.72;-80.59;0
-5.7;-12.4;-8.05;-75.18;11.67;-75.84;0
-7.05;-12.94;-5.27;-56.64;23.72;-70.44;0
-6.48;-13.16;-5.16;-22.74;19.97;-57.61;0
-4.85;-13.39;-7.41;-3.38;19.32;-51.83;0
-4.28;-13.38;-8.18;2.01;18.37;-43.48;0
-4.91;-13.18;-6.6;7.74;27.06;-28.04;0
-5.81;-12.7;-3.34;28.66;51.09;-2.44;0
-6.15;-11.67;-0.71;68.89;74.8;24.57;0
-6.48;-10.65;-0.84;108.05;96.09;50.51;0
-6.3;-9.85;-3.71;140.74;100;72.23;0
-6.12;-10.68;-7.4;152.85;80.75;89.08;0
-4.72;-13.6;-11.35;147.9;44.99;110.37;0
-3.01;-17.07;-14.08;141.11;-0.18;130.64;0
-2.83;-15.65;-14.86;137.38;-51.25;144.95;0
-1.58;-17.07;-14.51;125.18;-90.44;151.39;0
2.27;-18.98;-15.83;110.12;-78.11;148.64;0
4.24;-15.51;-13.28;105.39;-5.93;146.53;0
2.38;-17.57;-10.08;108.25;37.34;156.08;0
2.42;-18.46;-12.21;112.72;42.93;168.83;0
2.08;-16.87;-14.22;100.01;29.85;171.28;0
2.93;-14.58;-14.79;72.19;31.69;162.73;0
3.14;-12.11;-13.58;43.38;28.9;150.02;0
2.33;-10.97;-12.04;24.91;6.85;138.21;0
1.8;-9.45;-11.28;12.92;-32.84;128.78;0
2.77;-8.4;-11.25;6.33;-63.3;119.64;0
3.5;-7.37;-11.4;6.44;-84.65;110.23;0
4.2;-6;-11.64;7.04;-108.46;95.6;0
4.84;-4.53;-11.88;5.93;-131.61;74.77;0
6.31;-2.8;-12.58;3.17;-133.62;51.63;0
8.73;-0.59;-13.12;2.45;-98.28;28.63;0
7.77;0.21;-13.43;0.35;-60.91;-0.63;0
6.52;0.43;-11.02;2.87;-34.63;-29.02;0
3.77;-0.1;-5.87;18.63;-72.55;-57.9;0
2.19;-0.85;-3.48;27.34;-169.96;-79.7;0
3.17;-3.84;-3.33;22.49;-234.96;-85.88;0
-1.69;-7.28;-4.79;14.56;-246;-83.88;0
-4.52;-9.36;-8.72;-11.59;-227.81;-61.81;0
-10.23;-14.77;-10.81;-67.7;-12.47;-26.59;0
-12.46;-18.89;-7.63;-99.24;223.09;13.28;0
-9.42;-15.59;-9.16;-94.74;254.27;52.46;0
-8.68;-12.14;-9.73;-91.8;254.27;73.63;0
-6.01;-8.17;-15.92;-93.86;254.27;67.69;0
-0.37;-9.57;-17.04;-97.46;244.93;34.28;0
5.56;-19.54;-11.02;-111.57;10.89;-29.77;0
5.85;-19.55;5.63;-54.14;-215.29;-61.81;0
-0.91;-17.37;-2.3;52.84;-177.88;-8.9;0
3.63;-9.93;-10.64;58.63;-102.24;30.67;0
7.79;-2.44;-15.09;25.1;-40.83;31.95;0
8.32;0.12;-17.73;-6.21;-41.06;0.62;0
11.65;-2.78;-19.87;-40.99;-25.44;-56.67;0
13.12;-7.56;-20.47;-83.5;1.78;-120.28;0
9.9;-11.66;-18.78;-122.41;37.55;-155.65;0
3.06;-15.38;-15.17;-145.01;98.58;-147.94;0
-3.74;-17.73;-11.47;-133.88;181.01;-114.51;0
-5.52;-13.5;-8.64;-101.17;202.87;-97.03;0
-4.72;-9.99;-7.73;-82.92;149.09;-85.23;0
-2.46;-8.91;-8.93;-73.61;89.18;-78.08;0
-1.31;-8.46;-11.72;-66.95;62.58;-77.12;0
-1.36;-7.52;-13.59;-60.4;58.72;-84.63;0
-2.3;-6.71;-13.77;-60.32;47.3;-95.54;0
-2.57;-6.42;-12.89;-59.08;23.03;-106.22;0
-2.63;-7.15;-11.69;-60.6;1.57;-110.22;0
-2.61;-9.23;-10.7;-67.41;-18.65;-104.37;0
-2.02;-11.52;-9.19;-70.64;-18.02;-93.69;0
-1.91;-13.05;-8.47;-68.45;-2.86;-83.52;0
-2.78;-12.81;-8.22;-59.84;12.34;-76.73;0
-3.37;-11.5;-8.12;-47.51;33.16;-71.63;0
-3.47;-11.79;-8.29;-35.57;44.09;-68.18;0
-3.68;-13.33;-7.83;-28.63;48.62;-67.24;0
-5.1;-14.17;-5.94;-15.17;62.35;-58.82;0
-7.43;-14.25;-4.13;13.93;82.89;-38.98;0
-8.76;-13.33;-3.36;48.14;97.99;-8.77;0
-9.31;-12.29;-2.78;74.08;119.88;22.93;0
-8.71;-10.85;-1.93;93.3;136.13;48.5;0
-6.75;-10.39;-4.97;114.71;116.98;64.57;0
-4.2;-10.57;-9.76;126.59;57.42;76.96;0
-1.78;-11.97;-13.77;138.48;-14.48;98.61;0
-2.69;-14.37;-15.67;147.01;-75.17;109.53;0
-4.42;-16.27;-16.46;134.53;-130.64;111.9;0
-5.53;-18.04;-16.9;105.42;-143.1;116.88;0
-2.33;-14.58;-16.61;77.86;-76.88;127.5;0
-0.02;-12.65;-12.87;54.83;-2.52;139.3;0
0.47;-16.45;-8.16;61.46;34.92;153.54;0
1.82;-18.54;-8.77;98.66;-16.28;166.27;0
5.7;-18.21;-13.09;107.05;-46.68;156.69;0
5.87;-14.03;-14.29;86.53;-39.77;142.21;0
5.15;-11.07;-13.4;54.93;-24.39;133.08;0
4.57;-9.17;-11.81;29.46;-13.38;127.84;0
3.69;-8.45;-10.71;19.14;-22.3;115.44;0
3.88;-7.86;-11.05;14.63;-34.71;108.77;0
4.03;-6.87;-11.29;13.52;-53.52;99.56;0
4.14;-5.75;-11.5;12.21;-74.02;91.21;0
4.35;-4.94;-11.78;8.27;-90.23;77.6;0
4.83;-3.72;-12.35;4.09;-92.52;61.65;0
6.74;-2.25;-12.88;2.42;-66.7;41.75;0
7.29;-0.44;-13.32;2.46;-9.12;27.79;0
6.48;-0.2;-12.91;9.27;44.64;13.58;0
5.66;-0.31;-11.99;9.07;71.02;-9.92;0
2.06;-1.22;-7.67;-1.14;-16.41;-47.11;0
-0.88;-3.41;-4.29;-8.66;-157.05;-75.19;0
-2;-6.74;-1.59;-2.57;-246;-83.25;0
-5.05;-12.23;-2.91;11.68;-246;-75.76;0
-11;-19.55;-7.68;5.4;-179.38;-59.6;0
-13.05;-19.55;-12.49;-50.89;107.47;-40.36;0
-14.02;-15.09;-11.82;-85.81;236.29;22.46;0
-11.62;-11.88;-8.66;-92.44;239.8;58.65;0
-8.84;-10;-14.22;-90.17;249.34;63.29;0
-2.23;-12;-15.97;-93.02;228.98;40.01;0
9.3;-19.55;-9.24;-95.68;88.16;-5.99;0
15.13;-19.55;9.54;-60.07;-195.49;-36.85;0
13.6;-13.14;-3.24;65.76;-175.67;-15.57;0
8.74;-8.33;-14.03;79.08;-104.56;-17.43;0
8.06;-3.15;-17.25;25.19;7.06;-20.92;0
6.02;0.93;-17.99;-12.5;63.91;-36.86;0
7.49;-1.61;-19.47;-38.98;50.29;-69.83;0
8.86;-7.41;-20.64;-80.77;32;-120.45;0
7.08;-12.89;-19.62;-122.29;27.9;-158.67;0
0.63;-16.71;-17.69;-157.07;51.87;-153.75;0
-5.34;-18.49;-13.09;-168.53;128.61;-128.76;0
-6.66;-13.4;-6.16;-126.34;182.3;-113.27;0
-5.32;-9.4;-5.34;-84.7;145.39;-89.04;0
-2.29;-7.83;-7.62;-63.84;71.2;-72.5;0
-0.52;-7.2;-10.72;-55.93;21.1;-71.96;0
-0.79;-7.15;-12.96;-50.89;5.45;-82.07;0
-2.25;-6.58;-13.95;-55.6;1.31;-97.72;0
-1.84;-7.16;-13.16;-63.7;-4.51;-111.13;0
-1.34;-7.6;-12.12;-73.63;-16.58;-114.11;0
-0.09;-9.28;-10.81;-83.69;-29.17;-107.47;0
0.89;-11.59;-8.39;-83.31;-26.53;-102.82;0
0.46;-13.94;-5.77;-67.43;-9.78;-100.46;0
-2.85;-13.59;-6.26;-44.32;10.81;-92.82;0
-6.34;-13.19;-8.28;-28.15;15.95;-82.12;0
-7.28;-12.78;-9.56;-24.69;22.96;-72.16;0
-7.38;-13.05;-9.1;-25.71;23.22;-61.87;0
-8.11;-13.27;-7.59;-18.28;21.22;-45.81;0
-7.83;-12.49;-5.16;2.5;28.78;-25.64;0
-6.84;-11.84;-3.7;30.24;43.93;1.94;0
-6.03;-11.41;-3.45;59.55;60.35;25.23;0
-6.19;-10.9;-3.1;92.3;78.03;47.59;0
-7.06;-10.54;-5.01;122.81;72.74;70.62;0
-7.18;-11.43;-8.03;133.39;47.05;93.35;0
-5.75;-13.76;-10.49;127.52;26.45;116.33;0
-4.5;-16.26;-12.36;119.34;-27.7;134.34;0
-2.63;-17.38;-13.98;119.84;-97.17;142.79;0
0.56;-18.58;-14.49;130.07;-131.79;143.08;0
3.38;-18.51;-16.13;137.83;-105.57;137.35;0
4.08;-14.83;-16.8;130.33;-30.17;136.63;0
3.15;-15.09;-15.02;92.92;12.64;146.28;0
0.92;-15.84;-12.73;73.5;28.12;160.15;0
1.83;-16.1;-13.21;65.64;33.61;165.44;0
3.54;-15.18;-12.84;53.83;21.67;151.75;0
3.73;-12.68;-11.95;39.79;5.61;138.79;0
3.3;-11.18;-10.69;27.89;-23.98;131.43;0
4.05;-10.26;-11.07;16.5;-48.33;120.99;0
6.42;-8.71;-11.84;5.79;-60.61;103.7;0
3.96;-6.59;-9.96;1.78;-76.14;101.85;0
4.89;-5.77;-10.54;6.98;-101.79;95.43;0
5.69;-4.58;-11.33;10.33;-118.92;77.7;0
6.34;-3.35;-12.44;8.05;-117.49;58.61;0
7.66;-1.56;-12.76;7.24;-85.04;40.92;0
8.36;0.01;-12.72;10.7;-29.19;21.84;0
7.48;0.06;-11.9;13.54;20.06;-2.79;0
5.55;-0.62;-8.9;12.79;21.29;-31.39;0
2.58;-2.3;-4.64;9.97;-63.33;-61.49;0
1.61;-5.31;-2.37;8.14;-146.1;-77.37;0
-2.18;-8.88;-2.25;21.92;-224.39;-85.43;0
-5.47;-12.62;-4.93;33.67;-229.95;-71.35;0
-9.81;-18.26;-11.27;10.39;-77.75;-46.66;0
-13.38;-17.19;-14.81;-56.59;149.36;-10.17;0
-12.68;-12.93;-14.12;-95.75;254.27;39.5;0
-10.62;-9.31;-16.08;-112.16;254.27;63.19;0
-7.13;-6.32;-18.77;-111.06;254.27;55.67;0
2.53;-6.55;-15.35;-104.16;199.19;29.96;0
10.3;-16.24;-5.56;-147.39;-28.51;-25.37;0
16.39;-19.55;9.54;-54.58;-138.29;-64.43;0
4.96;-18.08;-1.43;78.08;-143.82;-52.5;0
1.43;-11.06;-14.55;86.63;-127.07;-26.5;0
3.55;-3.62;-17.14;47.91;-17.04;-18.68;0
3.59;-2.27;-18.73;15.19;27.72;-21.22;0
7.02;-3;-20.25;-23.02;35;-48.78;0
10.67;-7.92;-21.71;-66.33;36.9;-98.13;0
9.38;-10.85;-20.8;-112.43;49.79;-135.41;0
4.81;-12.95;-17.81;-150.69;62.01;-138.73;0
-0.48;-15.02;-14.4;-172.63;99.32;-125.01;0
-3.76;-13.02;-10;-163.18;166.67;-113.4;0
-4.17;-11.44;-4.9;-123.25;170.12;-100.97;0
-2.2;-10.83;-5;-76.64;107.04;-86.04;0
-1.26;-9.69;-8.52;-43.05;55.63;-75.98;0
-1.05;-8.89;-11.31;-23.35;38.5;-74.37;0
-1.57;-7.25;-13.04;-16.56;35.42;-77.84;0
-1.34;-6.8;-13.51;-21.62;35.85;-91.37;0
-1.25;-7.52;-12.96;-33.41;29.65;-100.37;0
-0.98;-8.79;-12.76;-50.57;14.06;-99.77;0
-1.11;-9.96;-11.84;-64.48;13.23;-94.78;0
-1.81;-9.8;-10.72;-71.98;13.51;-91.12;0
-4.29;-10.91;-9.78;-71.7;6.91;-87.3;0
-6.92;-12.07;-8.97;-63.67;10.87;-86.51;0
-8.54;-13.35;-7.35;-46.34;19.77;-76.88;0
-7.26;-13.8;-6.04;-25.52;17.32;-60.7;0
-5.82;-14.05;-6.12;-5.3;11.16;-43;0
-3.99;-13.21;-6.61;13.89;18.99;-32.11;0
-5.96;-12.77;-6.7;30.72;35.65;-12.76;0
-6.45;-12.04;-5.66;49.64;61.35;12.82;0
-7.03;-12.04;-4.32;77.69;91.32;40.86;0
-7.78;-12.35;-5.2;103.73;90.67;68.56;0
-7.41;-13.79;-6.67;116.62;72.44;92.47;0
-6.01;-15.3;-8.27;115.14;37.48;116.05;0
-3.03;-15.82;-9.05;111.56;-0.33;137.86;0
-0.37;-15.63;-10.9;112.98;-37.47;148.39;0
1.65;-16.28;-13.29;128.03;-59.17;150.8;0
5.1;-15.18;-14.96;144.92;-42.87;140.46;0
5.66;-13.91;-16.29;144.2;-5.56;129.07;0
3.32;-14.17;-16.44;111.11;12.33;127.11;0
0.59;-14.93;-17.26;71.18;32.97;128.49;0
-0.77;-13.92;-17.3;36.25;54.95;129.51;0
-0.8;-11.65;-13.82;11.5;52.61;130.88;0
-0.17;-10.91;-10.52;-0.47;26.81;135.36;0
1.52;-10.68;-9.46;0.34;-19.26;136.67;0
2.95;-9.77;-9.16;8.95;-74.92;126.97;0
4.05;-8.21;-10.35;17.01;-115.26;118.41;0
4.79;-6.93;-12.07;19.35;-140.67;108.87;0
5.35;-5.44;-13.05;15.47;-153.66;96.86;0
5.99;-4.15;-13.41;9.01;-159.87;80.47;0
7.09;-2.94;-13.67;4.09;-148.07;60.13;0
8.22;-1.41;-13.81;-1.53;-108.6;39.41;0
8.24;-0.26;-13.37;-5.29;-58.91;19.63;0
8.03;-0.46;-12.48;-4.85;-2.46;-3.33;0
5.7;-1.44;-8.98;-4.85;9.67;-25.44;0
2.96;-3.06;-3.93;-1.06;-47.05;-51.66;0
0.37;-6.08;1.1;-1.43;-154.71;-74.1;0
-2.86;-10.43;0.13;12.28;-237.33;-89.05;0
-9.83;-15.94;-2.64;35.3;-246;-79.02;0
-10.87;-19.55;-10.26;24.9;-110.03;-46.53;0
-13.82;-15.41;-14.4;-32.95;130.62;1.86;0
-12.03;-11.85;-10.96;-80.14;239.01;50.49;0
-9.37;-10.27;-11.15;-97.6;239.67;73.79;0
-6.27;-10.78;-16.74;-91.18;248.9;75.01;0
1.64;-15.17;-15.74;-75.47;215.99;53.76;0
11.2;-19.55;-9.81;-78.67;63.1;5.52;0
16.64;-19.55;4.26;-39.4;-149.36;-10.24;0
13.51;-9.82;-4.81;59.7;-84.42;-16.22;0
9.61;-5.76;-14.56;73.3;-55.05;-21.61;0
9.45;-0.61;-17.26;39.53;37.66;-35.6;0
7.63;-0.81;-18.54;12.25;74.14;-70.11;0
7.43;-5.08;-21.47;-27.03;48.41;-114;0
8.12;-12.39;-22.95;-84.11;7.99;-165.41;0
4.37;-16.41;-21.42;-146.57;7.16;-173.33;0
-2.09;-16.36;-17.51;-187.83;42.54;-144.11;0
-5.32;-15.7;-10.86;-187.34;126.51;-125.5;0
-4.19;-12.18;-4.73;-139.07;182.37;-108.11;0
-1.96;-9.99;-3.39;-89.78;139.61;-88.83;0
-0.39;-8.86;-5.5;-54.64;76.96;-77.88;0
0.02;-8.38;-8.78;-30.27;26.45;-73.89;0
-1.04;-8.04;-11.96;-20.37;4.93;-78.66;0
-1.34;-7.02;-14.21;-24.16;8.8;-88.14;0
-1.7;-6.62;-13.66;-32.42;16.25;-97.95;0
-0.52;-6.93;-13.47;-42.47;15.03;-102.89;0
-1.29;-9.25;-12.88;-56.94;9.03;-96.67;0
-1.33;-11.14;-11.58;-71.65;3.83;-84.71;0
-1.84;-12.54;-9.75;-83.37;3.96;-71.21;0
-2;-13.33;-7.33;-77.79;15.54;-73.95;0
-3.29;-13.37;-5.91;-46.59;13.05;-81.16;0
-4.62;-12.55;-7.1;-14.7;10.92;-78.44;0
-5.37;-12.08;-9.01;-1.65;9.56;-73.54;0
-6.35;-12.39;-9.91;-2.58;12.83;-65.08;0
-7.39;-12.37;-8.71;-2.21;32.19;-47.24;0
-8.2;-12.16;-6.32;7.32;62.16;-22.07;0
-8.06;-11.71;-4.07;34.72;80.74;6.72;0
-7.82;-11.09;-3.08;69.11;89.41;33.83;0
-7.97;-10.17;-3.68;99.34;97.34;58.76;0
-7.91;-9.42;-6.14;118.72;81.02;82.81;0
-7.53;-10.93;-9.9;118.01;40.93;105.81;0
-6.06;-15.53;-12.82;111.72;-16.09;131.29;0
-4.18;-16.61;-14.01;120.14;-70.66;148.15;0
-2.9;-17.3;-13.91;122.55;-103.71;158.14;0
-2.12;-18.47;-13.86;109.57;-121.85;158.53;0
0.2;-18.71;-15.66;98.11;-92.04;154.25;0
2.23;-17.1;-16.63;93.48;-9.89;161.83;0
2.19;-17.21;-14.92;80.23;45.31;174.63;0
3.48;-17.31;-14.39;71.09;43.04;179.71;0
4.72;-14.95;-13.58;53.17;12.4;170.24;0
5.36;-13.13;-13.15;31.18;-8.77;152.31;0
4.06;-11.21;-11.72;19.03;-29.74;139.41;0
3.2;-10.09;-11.5;10.96;-52.06;132.84;0
3.15;-8.47;-11.73;5.77;-80.13;126.12;0
4.41;-7.51;-12.28;1.47;-108.68;112.89;0
5.25;-6.1;-12.48;-4.76;-135.63;95.19;0
6.41;-4.72;-12.41;-11.2;-157.39;75.15;0
7.23;-3.92;-12.63;-12.13;-165.99;53.6;0
8.56;-2.73;-12.91;-7.13;-139.62;29.99;0
8.06;-1;-11.89;5.08;-93.36;8.16;0
7.66;-0.8;-10.86;22.73;-50.68;-7.79;0
7.42;-0.75;-8.6;28.01;-51.64;-30.95;0
5.19;-2.26;-6.07;21.84;-111.88;-57.56;0
4.01;-4.4;-2.83;16.54;-165.06;-65.75;0
0.03;-8.1;-1.43;30.21;-212.11;-71.59;0
-4.31;-11.2;-4.01;50.05;-219.39;-63.03;0
-10.48;-17.28;-10.08;35.51;-147.97;-50.33;0
-8.64;-17.73;-14.47;-24.24;86.31;-10.53;0
-10.08;-13.8;-13.35;-80.04;252.68;41.76;0
-6.4;-10.31;-11.48;-112.35;254.27;57.88;0
-5.84;-9.78;-15.9;-122.17;254.27;44.5;0
-1.22;-10.31;-17.86;-105.12;254.27;25.66;0
5.68;-16.98;-14.44;-89.9;171.07;2.25;0
10.98;-19.55;-0.68;-111.56;-76.34;-37.64;0
9.78;-16.33;-1.02;-29.22;-97.03;-41.81;0
2.77;-10.24;-7.69;27.44;-91.97;-24.46;0
3.91;-4.89;-11.82;27.14;-71.39;-8.69;0
5.49;-0.93;-13.2;19.31;0.37;-30.4;0
6.89;-3.46;-15.2;10.46;2.78;-66.12;0
8.57;-8.61;-18.2;-16.39;-12.81;-109.08;0
9.44;-13.94;-19.8;-46.8;1.03;-141.58;0
5.93;-15.84;-18.23;-84.83;8.22;-137.35;0
1.18;-14;-16;-118.03;38.38;-121.82;0
-1.46;-11.22;-13.96;-129.76;107.83;-114.03;0
-1.36;-9.44;-11.12;-127.45;156.09;-105.01;0
-1.5;-10.21;-9.76;-118.4;144.97;-92.32;0
-0.92;-10.41;-9.41;-97.31;90.22;-85.37;0
-0.68;-10.05;-10.58;-70.19;53.55;-84.3;0
-1.44;-8.88;-11.48;-48.31;45.53;-91.37;0
-2.36;-7.74;-11.71;-33.94;31.91;-93.49;0
-1.91;-7.24;-11.96;-31.91;22.04;-99;0
-1.45;-7.62;-11.49;-41.44;13.77;-101.51;0
-1.39;-8.94;-11.74;-59.22;7.99;-98.16;0
-1.59;-10.21;-11.35;-76.85;16.58;-93.48;0
-2.97;-10.87;-9.61;-85.77;28.72;-89.59;0
-5.45;-12.4;-7.16;-74.35;51.58;-86.39;0
-7.57;-13.62;-5.99;-37.76;40.41;-78.05;0
-7.73;-13.27;-8.03;-7.47;11.66;-68.53;0
-7.88;-12.6;-10.12;0.69;-5.31;-60.15;0
-9.16;-13.12;-9.75;1.14;-3.65;-45.1;0
-10.65;-12.98;-6.95;8.8;13.44;-14.17;0
-9.44;-12.82;-3.52;31.03;36.4;18.13;0
-8.29;-12.74;-1.35;69.05;54.31;49.21;0
-6.58;-12.87;-2.97;109.46;62.45;74.52;0
-4.51;-12.19;-6.64;129.86;41.25;95.12;0
-2.21;-12.95;-9.82;134.76;13.64;112.67;0
-0.76;-15.27;-11.91;130.27;-21.43;127.71;0
0.47;-16.9;-12.5;121.54;-27.21;133.05;0
2.7;-17.41;-13.11;120.72;-13.04;134.22;0
4.28;-16.07;-14.29;128.05;6.45;131.96;0
4.26;-13.6;-15.51;131.58;6.07;131.96;0
3.18;-12.51;-16.01;113.32;12.31;138.63;0
-0.21;-14.37;-15.98;67.21;54.67;139.58;0
-0.31;-14.52;-16.07;29.33;68.9;143.06;0
0.39;-13.46;-14.61;9.57;63.22;146.63;0
1.28;-12.71;-12.15;-1.57;37.19;145.18;0
1.95;-12.17;-9.85;-4.51;-1.01;141.69;0
2.82;-10.59;-9.86;0.25;-50.14;137.67;0
3.58;-8.8;-10.67;4.89;-86.82;128.76;0
4.39;-7.6;-11.66;6.6;-118.4;115.6;0
4.9;-6.37;-12.41;6.43;-143.77;99.43;0
5.63;-5.05;-12.66;3.96;-158.67;82.08;0
6.62;-3.47;-12.79;2.98;-162.3;59.86;0
7.63;-2.18;-12.92;3;-145.36;35.28;0
8.57;-0.84;-12.97;3.11;-103.42;10.99;0
7.47;0.46;-12;8.6;-50.83;-6.85;0
6.63;-0.52;-10.46;14.06;0.49;-20.3;0
5.38;-1.84;-7.2;16.96;1.55;-37.18;0
2.56;-4.15;-2.29;11.55;-70.62;-59.16;0
-1.94;-9.29;1.86;-0.18;-209.55;-81.75;0
-9.1;-15.26;0.21;26.31;-246;-90.03;0
-14.7;-19.55;-8.13;44.96;-207.91;-68.99;0
-11.79;-17.92;-16.02;-7.59;82.66;-15.28;0
-13.53;-10.6;-14.13;-71.83;254.27;42.06;0
-8.99;-8.21;-11.67;-107.39;254.27;70.12;0
-6.92;-8.55;-14.07;-107.77;254.27;80.71;0
-0.12;-8.8;-17.73;-86.2;252.34;68.54;0
8.61;-12.81;-11.09;-82.36;131.24;36.08;0
15.04;-19.55;5.84;-99.88;-109.2;-14.69;0
16.1;-19.55;2.4;33.89;-124.95;-42.87;0
7.13;-10.66;-9.65;95.13;-101.3;-36.22;0
7.26;-6.25;-15.87;68.78;-50.4;-16.81;0
6.28;-1.61;-16.31;46.94;67.33;-21.63;0
8.37;-2.64;-16.84;32.69;74.45;-44.08;0
10.55;-6.98;-20.71;-0.75;58.22;-94.24;0
9.84;-11.44;-22.01;-46.52;47.96;-141.72;0
4.1;-13.19;-21.32;-102.42;41.87;-150.66;0
-0.83;-14.65;-18.41;-140.72;61.85;-139.54;0
-4.31;-14.97;-15.86;-158.38;128.2;-127.31;0
-4.68;-11.72;-12.33;-154.21;167.09;-125.81;0
-3.62;-10.59;-8.75;-145.72;140.93;-112.8;0
-3.03;-10.18;-7.48;-122.22;84.15;-97.36;0
-1.96;-10.38;-7.16;-83.37;35.94;-91.05;0
-0.94;-9.16;-9.23;-49.95;15.5;-91.17;0
-1.22;-7.28;-10.79;-27.26;8.02;-94.66;0
-0.78;-6.75;-11.49;-21.79;0.19;-98.27;0
0.47;-7.74;-11.89;-30.45;-6.74;-103.79;0
0.99;-9.12;-11.77;-45.05;-1.49;-107.25;0
0.63;-9.87;-11.5;-57.94;20.39;-103.73;0
-1.78;-10.93;-10.6;-68.05;37.82;-100.59;0
-5.13;-12.22;-8.35;-67.93;52.58;-98.03;0
-7.62;-13.96;-7.04;-41.99;44.72;-92.4;0
-8.39;-13.57;-7.75;-12.47;24.97;-81.39;0
-8.14;-12.65;-9.54;-2.09;14.33;-68.11;0
-8.65;-12.66;-10.07;1.7;11.41;-53.41;0
-9.46;-12.24;-8.49;8.75;15.41;-28.9;0
-9.65;-12.12;-5.95;22.33;28.22;2.6;0
-8.49;-11.83;-3.7;50.75;37.96;29.9;0
-8.52;-11.69;-3.58;87.07;49.93;53.63;0
-8.09;-11.54;-5.88;115.92;55.83;80.21;0
-6.24;-11.17;-8.92;126.69;40.03;100.76;0
-5.06;-13.07;-11.91;126.8;4.29;124.07;0
-3.88;-15.97;-12.96;122.95;-49.55;143.2;0
-2.02;-16.96;-12.49;114.69;-71.18;152.46;0
0.46;-18.18;-12.66;113.43;-86.23;154.58;0
4.13;-17.87;-15.25;125.75;-73.54;144.79;0
4.28;-14.84;-16.62;143.24;-56.05;145.8;0
4.35;-14.2;-16.23;126.82;-29.7;148.73;0
1.78;-15.95;-17.28;81.87;-6.2;148.1;0
0.9;-15.33;-17.92;39.91;-4.25;147.02;0
2.07;-13.2;-17.37;4.1;3.77;143.14;0
2.95;-11.2;-14.87;-29.5;12.06;139.81;0
2.97;-10.55;-10.03;-45.9;9.47;139.99;0
3.25;-10.67;-6.92;-23.87;-46.07;136.77;0
4.49;-9.58;-7.97;1.59;-112.71;122.5;0
5.46;-8;-10.89;14.11;-146.11;106.61;0
6.22;-6.4;-12.09;11.28;-163.77;86.96;0
6.3;-4.57;-12.39;4.53;-173.31;66.37;0
6.97;-3.59;-12.77;0.93;-168.88;47.13;0
8.73;-1.42;-13.19;3.24;-127.09;24.55;0
9.46;0.65;-11.83;12.89;-60.96;1.79;0
8.04;0.72;-10.72;23.22;7.92;-14.29;0
6.59;-0.63;-7.6;28.87;-3.67;-37.04;0
3.21;-2.23;-4.8;26;-75.6;-63.11;0
-0.8;-5.57;-2.24;9.06;-153;-71.75;0
-4.79;-9.55;-1.76;12.13;-206.61;-78.01;0
-7.79;-17.26;-2.09;32.74;-226.83;-80.4;0
-9.43;-19.55;-11.22;29.55;-53.75;-29.49;0
-12.16;-17.71;-15.59;-28.71;177.59;11.76;0
-11.79;-12.25;-14.33;-84.41;254.27;63.16;0
-8.27;-8.87;-13.13;-118.11;254.27;82.29;0
-5.79;-7.4;-16.28;-118.28;254.27;72.37;0
1.36;-5.98;-15.27;-82.03;254.27;45.08;0
8.73;-10.34;-12.87;-64.2;148.67;6.94;0
15.33;-19.55;-8.32;-102.44;-135.12;-57.21;0
16.47;-19.55;-1.96;-58.5;-145.21;-91.15;0
-1.89;-15.37;-6.46;4.91;-125.15;-67.34;0
-3.45;-8.71;-7.48;11.5;-49.71;-8.8;0
3.04;-3.65;-11.1;17.18;-9.04;8.21;0
7.85;-2.77;-13.31;13.54;3.45;-12.72;0
11.69;-5.96;-15.4;0.89;31.99;-52.06;0
14.34;-9.74;-17.28;-3.63;68.26;-94.21;0
12.08;-11.53;-17.52;-19.31;77.51;-123.6;0
7.58;-11.01;-17.71;-51.05;72.92;-134.8;0
0.01;-11.95;-17.89;-86;84.47;-133.65;0
-4.37;-11.08;-17.27;-124.18;118.64;-130.78;0
-6.22;-11.39;-14.29;-148.31;159.41;-120.4;0
-6.86;-12.01;-12.01;-151.8;144.83;-103.24;0
-5.47;-11.48;-9.82;-135.02;100.08;-94.13;0
-3.97;-9.45;-6.34;-89.5;55.83;-87.47;0
-3.89;-8.75;-5.76;-31.62;9.04;-82.73;0
-3.07;-7.83;-8.26;2.82;-34.14;-83.57;0
-2.66;-7.41;-10.37;6.36;-45.27;-84.3;0
-2.66;-7.94;-11.78;-10.02;-29.78;-79.79;0
-2.21;-8.99;-11.7;-31.17;-0.38;-73.08;0
-1.68;-11.2;-11.43;-45.87;23.67;-63.69;0
-2.02;-12.65;-11.62;-51.92;29.48;-60.3;0
-2.44;-12.88;-11.27;-47.2;27.7;-63.79;0
-3.43;-13.13;-9.56;-39.47;34.45;-63.7;0
-6.64;-14.75;-6.12;-23.26;56.89;-55.83;0
-9.79;-14.6;-3.94;9.36;67.41;-33.3;0
-10.1;-12.53;-4.14;39.89;73.18;1.44;0
-7.73;-11.55;-4.93;58.45;96.48;30.66;0
-3.79;-10.62;-6.12;71.22;109.5;46.38;0
-1.98;-9.61;-7.15;85.51;99.87;49.37;0
-2.13;-8.49;-9.07;97.16;76;52.42;0
-3.97;-9.17;-11.76;106.21;29.41;62.81;0
-4.96;-13.11;-13.52;107.68;-21.97;79.48;0
-6.7;-16.74;-14.99;112.17;-78.33;97.13;0
-8.7;-17.03;-14.75;113.58;-148.27;110.75;0
-8.52;-16.28;-13.73;95.01;-154.56;127.05;0
-5.22;-13.13;-13.44;71.97;-65.59;139.67;0
-0.99;-14.12;-12.86;63.86;-4.3;164.78;0
2.27;-17.22;-12.54;78.82;8.05;169.97;0
5.97;-18.14;-13.23;91.9;-16.5;169.37;0
7.63;-16.41;-13.69;90.85;-40.04;160.21;0
8.13;-12.59;-13.74;74.63;-45.17;147.63;0
6.42;-9.94;-13.33;42.14;-37.91;134.93;0
3.92;-8.99;-12.61;16.09;-26.82;126.41;0
3.18;-8.51;-11.78;2.95;-27.3;118.06;0
3.93;-8.01;-11.33;-0.92;-45.18;106.79;0
4.62;-6.87;-11.63;-1.92;-67.21;92.07;0
5.16;-5.48;-12.08;-5.37;-90.1;74.43;0
5.51;-4.34;-12.58;-10.46;-104.71;56.47;0
6.68;-3.27;-13.09;-12.55;-95.3;37.53;0
7.4;-1.46;-13.39;-13.4;-57.61;21.61;0
6.03;-0.9;-11.77;-4.97;-10.23;8.33;0
6.72;-1.25;-10.17;5.28;4.13;-14.14;0
5.11;-2.51;-7.89;4.66;-55.56;-40.93;0
2.41;-4.86;-4.14;3.86;-149.27;-68.29;0
0.31;-8.29;-1.56;11.21;-237.3;-83.53;0
-2.91;-10.82;-1.92;37.6;-246;-78.55;0
-9.8;-18.85;-5.21;55.79;-245.03;-76.69;0
-10.1;-19.55;-14.53;28.7;-55.44;-46;0
-14.22;-14.14;-16.84;-41.4;178.2;18.17;0
-10.01;-10.31;-14.27;-99.4;254.27;50.26;0
-5.97;-7.84;-12.4;-130.6;254.27;50.42;0
-2.89;-9.15;-14.83;-121.15;254.27;41.86;0
4.42;-8.66;-12.8;-89.65;231.29;28.18;0
10.27;-15.71;-7.03;-94.58;76.94;4.18;0
17.34;-19.55;7.04;-104.8;-86.34;-35.15;0
9.85;-16.56;-2.25;22.5;-65.9;-62.3;0
1.41;-10.43;-9.82;67.31;-116.64;-47.11;0
1.67;-5.6;-13.21;39.67;-63.71;-26.01;0
3.07;-2.23;-15.37;23.77;43.38;-24.3;0
5.95;-4.59;-16.24;10.4;59.96;-40.33;0
8.42;-7.8;-17.87;-4.73;63.22;-76.14;0
9.68;-11.48;-18.79;-28.89;71.2;-110.69;0
6.67;-12.27;-18.2;-68.62;50.69;-124.92;0
1.17;-12;-16.53;-107.88;53.02;-118.99;0
-3.15;-11.18;-14.3;-132.91;97.19;-109.04;0
-4.69;-10.82;-11.94;-135.86;145.05;-96.53;0
-4.28;-11.18;-9.69;-127.84;142.03;-88.89;0
-2.85;-10.58;-7.64;-99.82;85.83;-86.57;0
-1.72;-9.86;-8.55;-58.72;33.03;-80.78;0
-1.71;-8.52;-10.41;-24.65;-3.52;-81.84;0
-1.85;-8.01;-11.65;-8.31;-28.99;-89.11;0
-1.3;-8.12;-11.98;-13.18;-32.49;-97.48;0
-0.95;-10.01;-11.54;-31.17;-24.62;-102.92;0
-1.77;-10.01;-10.93;-48.07;-13.98;-91.29;0
-2.89;-10.19;-10.92;-63.05;16.06;-85.4;0
-4.13;-10.89;-9.88;-63.73;48.54;-84.97;0
-7.57;-12.59;-7.56;-40.45;42.77;-74.92;0
-7.9;-13.65;-6.75;-13.18;21.41;-58.82;0
-6.15;-13.79;-7.02;1.42;12.78;-45.54;0
-4.71;-13.1;-7.39;9.5;23.49;-33.09;0
-4.16;-11.99;-7.12;17.59;51.09;-22.69;0
-5.5;-11.64;-5.97;30.57;73.61;-5.09;0
-6.2;-11.53;-5.57;51.79;81.78;15.72;0
-6.99;-10.46;-6.76;75.57;68.61;34.86;0
-6.79;-10;-8.97;90.9;45.07;54.1;0
-6.89;-11.42;-11.4;97.76;19.07;76.38;0
-6.73;-14.24;-13.19;100.63;-15.38;103.52;0
-6.23;-15.5;-13.75;106.58;-53.07;120.15;0
-5.58;-15.74;-12.75;104.68;-84.95;127.97;0
-3.13;-14.79;-12.32;91.38;-77.64;135.05;0
0.28;-12.93;-13.07;78.9;-44.5;146.23;0
1.5;-14.22;-13.6;72.53;-29.15;163.7;0
1.22;-17.77;-13.42;79.99;-2.7;171.84;0
3.02;-18.7;-13.87;84.26;-22.01;168.3;0
4.92;-16.1;-13.82;79.26;-32.55;156.6;0
5.41;-12.21;-13.89;59.94;-20.66;146.44;0
4.15;-9.99;-13.61;25.34;-12.56;143.26;0
3.06;-9.34;-12.25;3.72;-11.99;140.77;0
3.51;-8.66;-11.42;-4.53;-30.22;132.44;0
4.43;-7.68;-11.23;-5.64;-63.62;117.18;0
5.54;-6.45;-11.5;-4.99;-95.97;95.49;0
5.91;-5.26;-11.5;-6.09;-122.91;74.29;0
5.85;-4.39;-11.93;-9.05;-142.3;52.81;0
6.44;-3.55;-12.7;-9.8;-139.97;33.8;0
7.69;-2.22;-13.29;-7.6;-103.65;13.83;0
7.66;0.27;-13.53;-5.47;-47.6;-3.84;0
7.27;0.25;-13.34;-6.5;6.49;-19.88;0
7.1;-0.93;-11.06;-15.5;16.9;-41.91;0
4.85;-3.94;-5.02;-19.83;-44.36;-76.43;0
0.84;-7.97;1.71;-15.98;-153.88;-100.4;0
-2.85;-12.17;2.45;23.69;-232.25;-103.95;0
-10.61;-19.55;0.53;78.01;-246;-110.5;0
-12.81;-19.55;-16.7;78.29;-149.46;-64.82;0
-14.86;-14.21;-19.89;-2.55;144.15;23.28;0
-10.07;-7.31;-17.03;-91.66;254.27;70.44;0
-8.16;-6.08;-15.94;-140.18;254.27;72.83;0
-3.43;-7.19;-16.52;-137.53;254.27;66.5;0
8.17;-12.18;-12.19;-125.52;235.83;31.31;0
13.21;-19.55;-1.26;-162.71;7.86;-3.35;0
15.99;-19.55;6.99;-31.93;-44.26;-29.46;0
8.29;-10.83;-6.8;80.53;-62.93;-36.62;0
4.39;-6.79;-14.46;88.56;-99.24;-29.36;0
4.88;-2.83;-16.06;58.53;1.55;-33.98;0
3.86;-2.44;-15.83;45.86;75.63;-48.11;0
5.43;-5.94;-18.2;24.9;53.96;-81.25;0
6.9;-11.49;-21.24;-8.95;10.46;-121.5;0
5.13;-13.61;-21.88;-61.18;-3.98;-139.59;0
0.24;-13.37;-18.96;-115.92;4.74;-126.61;0
-0.99;-12.43;-15.44;-155.66;56.16;-115.85;0
-1.37;-10.15;-11.78;-172.57;113.52;-107.44;0
-1;-10.22;-8.75;-171.09;142.03;-101.95;0
-0.79;-11.52;-6.27;-148.51;129.19;-98.46;0
0.23;-12.02;-4.07;-87.5;81.65;-95.55;0
-0.71;-10.87;-6.65;-25.11;19.54;-92.59;0
-2.63;-8.71;-10.03;7.34;-13.26;-89.63;0
-2.18;-7.15;-12.3;17.04;-26.04;-93.57;0
-1.59;-7.64;-12.94;8.09;-5.81;-97.56;0
-1.11;-8.33;-13.2;-13.42;13.22;-98.56;0
-1.36;-8.3;-12.94;-35.76;31.62;-95.08;0
-2.71;-8.59;-12.83;-56.25;35.62;-91.81;0
-5.32;-10.99;-12.47;-73.94;12.34;-90.41;0
-7;-13.26;-11.21;-85.68;-16.55;-82.43;0
-6.55;-14.32;-9.11;-84.6;11.64;-70.93;0
-8.44;-16.27;-3.62;-39.04;46.32;-61.34;0
-9.1;-15.16;-3.62;18.72;12.13;-38.48;0
-7.58;-12.49;-6.63;43.34;5.77;-13.36;0
-7.64;-11.75;-7.23;43.66;31.61;14.47;0
-6.58;-11.27;-4.61;55.6;68.92;38.21;0
-5.96;-11.28;-2.71;90.92;93.79;62.14;0
-4.99;-9.85;-5.39;115.24;72.56;84.87;0
-4.32;-9.83;-9.13;114.03;43.22;104.17;0
-2.86;-12.56;-11.09;96.82;31.91;123.84;0
-1.63;-15.86;-12.33;95.22;-1.84;139.89;0
-0.29;-15.75;-12.8;121.66;-57.25;141.99;0
0.88;-16.82;-13.69;143.89;-72.04;139.34;0
1.94;-15.74;-15.18;138.93;-39.74;136.71;0
1.82;-14.11;-17.23;120.7;-12.24;139.93;0
1.61;-15.03;-17.98;91.34;-1.8;153.08;0
1.21;-15.83;-17.75;50.1;41.42;157.53;0
2.43;-15.34;-16.27;13;48.91;153.97;0
3.62;-13.44;-13.42;-14.02;54.95;141.68;0
2.98;-11.86;-9.17;-21.02;43.39;140.01;0
2.38;-11.1;-6.84;-9.68;-21.49;136.36;0
2.95;-9.66;-8.88;4.54;-70.71;127.25;0
3.93;-8.49;-11.05;6.82;-97.93;112.21;0
4.61;-7.12;-12.04;0.79;-120.35;96.21;0
5.46;-5.53;-12.17;-5.96;-141.19;75.7;0
6;-4.1;-11.82;-8.79;-158.99;54;0
7.11;-3.03;-11.93;-7.44;-158.71;30.15;0
8.58;-1.97;-11.92;-0.63;-122.91;7.05;0
8.07;0.01;-11.79;8.14;-60.77;-5.43;0
6.91;-0.23;-10.23;21.05;-1.84;-17.17;0
5.01;-1.68;-8.29;29.01;17.62;-34.43;0
1.39;-2.15;-5.64;23.04;-31.78;-54.68;0
-2.1;-5.15;-0.89;-1.66;-139.88;-74.92;0
-6.77;-9.93;0.19;7.95;-215.25;-77.81;0
-10.36;-17.73;-2.12;54.3;-246;-65.98;0
-7.39;-19.55;-13.71;61.18;-136.07;-43.36;0
-11.71;-15.19;-17.75;-5.85;105.81;2.15;0
-11.05;-10.11;-15.01;-74.68;226.18;47.37;0
-8.46;-8.88;-12.6;-118.07;245.03;66.93;0
-6.15;-11.72;-16.28;-118.95;254.27;61.5;0
1.62;-15.06;-15.15;-93.44;230.62;37.49;0
9.68;-19.55;-9.95;-88.64;83.89;0.16;0
14.85;-19.55;6.36;-79.22;-114.41;-13.05;0
12.62;-12.13;-3.64;34.91;-80.99;-22.13;0
7.94;-6.8;-11.81;68.27;-90.26;-17.5;0
9.3;-2.29;-15.3;50.14;-17.07;-23.12;0
9.16;-0.67;-15.01;29.03;70.75;-56.17;0
9.08;-4.97;-17.03;10.6;61.58;-99.21;0
9.67;-11.97;-19.28;-21.63;20.17;-148.79;0
7.39;-15.28;-19.73;-58.53;-0.47;-169.46;0
1.38;-14.98;-17.98;-102.98;1.88;-149.56;0
-2.59;-14.07;-16.29;-131.79;54.54;-133.82;0
-4.08;-12.13;-12.92;-140.37;124.68;-120.53;0
-2.67;-8.97;-9.9;-139.86;167.33;-106.53;0
-1.63;-8.92;-8.17;-129.99;161.41;-92.46;0
-0.65;-9.99;-7.55;-99.02;110.87;-84.87;0
-0.23;-9.37;-8.06;-56.25;58.88;-89.71;0
-2.09;-8.26;-9.35;-20.15;24.64;-93.18;0
-3.24;-6.97;-10.56;-0.1;-8.13;-95.63;0
-3.03;-6.46;-12.33;-0.85;-25.82;-94.24;0
-2.14;-7.87;-12.56;-10.47;-21.27;-92.79;0
-1.83;-10.11;-12.23;-25.6;-8.42;-88.48;0
-2.75;-11.4;-11.9;-44.21;0.3;-76.33;0
-3.09;-11.84;-11.64;-62.5;2.51;-72.3;0
-3.71;-12.53;-10.96;-75.6;-2.83;-77.18;0
-5.27;-14.29;-6.97;-67.16;24.11;-77.85;0
-7.54;-14.83;-4.18;-24.14;32.32;-68.72;0
-7.43;-14.45;-6.03;12.01;5.73;-50.13;0
-6.65;-13.52;-8.81;21.85;2.96;-34.85;0
-6.65;-12.8;-8.98;25.66;18.67;-18.92;0
-7.96;-11.84;-6.28;34.86;48.7;6.87;0
-8.73;-11.62;-2.85;64.68;85.97;37.34;0
-8.89;-10.2;-2.4;104.44;97.74;67.4;0
-7.96;-8.62;-5.99;126.56;73.88;91.25;0
-5.74;-8.27;-9.81;114.55;47.13;108.49;0
-4.72;-9.88;-11.62;89.17;26.34;125.08;0
-3.35;-16.04;-13.52;77.03;-22.78;146.41;0
-2.36;-18.09;-14.96;120.23;-121.8;155.36;0
-2.27;-19.14;-15.58;157.3;-207.01;145.97;0
-2.88;-19.55;-16.95;141.19;-185.87;140.13;0
-0.87;-15.78;-17.84;107.14;-79.69;154.16;0
0.69;-15.22;-17.92;70.81;-12.97;177.96;0
3.23;-16;-16.6;42.77;30.35;183.49;0
6.76;-16.49;-13.85;33.32;32.97;175.9;0
8.44;-15.03;-11.99;24.35;12.56;155.86;0
7;-12.09;-10.92;19.34;-16.76;145.49;0
5.73;-10.01;-10.32;13.31;-43.7;137.21;0
4.79;-8.81;-10.33;6.54;-63.01;126.21;0
4.87;-7.95;-10.91;-0.88;-81.19;111.31;0
5.42;-6.83;-11.15;-7.28;-102.75;94.89;0
6.01;-5.31;-11.09;-12.11;-128.97;74.73;0
6.56;-4.43;-11.26;-16.56;-150.51;52.93;0
7.72;-4.1;-11.83;-17;-149.89;26.79;0
8.62;-2.62;-12.06;-11.78;-105.74;9.31;0
7.91;-1.25;-11.27;-0.39;-36.34;-5.45;0
7.36;-1.26;-10.44;13.11;21.56;-26.95;0
6.37;-1.2;-9.01;10.14;18.32;-46.94;0
3.87;-2.27;-6.16;-5.46;-38.91;-72.83;0
1.1;-4.34;-3.27;-20.24;-103.36;-93.12;0
-1.24;-7.2;-2.12;-8.21;-158.65;-90.59;0
-4.7;-11.32;-2.31;33.06;-209.46;-85.92;0
-9.64;-19.55;-7.16;60.51;-170.99;-81.37;0
-14.58;-19.55;-17.21;19.61;49.48;-14.02;0
-14.66;-17.59;-17.31;-71.19;229.37;42.7;0
-9.66;-12.86;-12.6;-130.11;254.27;59.04;0
-6.89;-10.13;-12.04;-140.11;254.27;42.57;0
-4.39;-9.53;-14.38;-111.15;254.27;34.42;0
3.71;-11.49;-11.98;-69.78;184.99;27.76;0
8.6;-19.22;-4.99;-86.1;-44.29;1.15;0
13.36;-19.55;3.57;-55.04;-111.36;-15.4;0
6.14;-12.8;-4.12;51.57;-95.35;-14.63;0
3.87;-6.5;-10.65;66.71;-134.1;-12.37;0
5.8;-2.07;-12.68;50.54;-46.34;-15.01;0
6.17;-1.28;-14.86;39.66;20.99;-25.9;0
9.07;-4.62;-17.1;29.11;32.53;-56.24;0
11.37;-10.28;-19.5;8.91;33.72;-97.55;0
10.25;-14.08;-19.68;-18.92;26.8;-126.73;0
5.17;-15.26;-18.86;-70.05;6.34;-135.4;0
-0.97;-14.21;-18.26;-117.7;22.22;-131.6;0
-3.39;-10.77;-15.48;-151.86;100.48;-120.55;0
-3.84;-9.7;-11.66;-165.87;135.9;-111.87;0
-3.6;-10.06;-10.25;-165.82;115.7;-100.26;0
-2.57;-9.41;-7.81;-146.52;61.53;-96.43;0
-1.44;-9.04;-7.46;-113.23;29.32;-93.11;0
-1.37;-9;-6.04;-58.86;24.26;-98.17;0
-1.87;-8.01;-7.83;-16.34;-17.1;-100.53;0
-1.5;-7.77;-9.88;-6.62;-31.59;-100.03;0
-0.6;-8.36;-11.08;-21.18;-5.49;-94.75;0
-1.08;-9.54;-11.66;-41.63;22.67;-90.5;0
-2.11;-11.59;-11.71;-54;31.77;-86.12;0
-3.39;-12.75;-11.63;-55.77;36.94;-79.1;0
-5.11;-12.57;-10.83;-48.61;29.03;-74.73;0
-5.9;-12.64;-9.89;-41.99;11.19;-65.3;0
-6.13;-13.38;-8.44;-36.93;10.72;-54.43;0
-6.07;-13.26;-6.79;-23.44;29.68;-38.33;0
-4.53;-12.02;-6.06;1.91;44.48;-21.67;0
-3.49;-12.05;-7.34;25.92;47.29;-7.43;0
-3.66;-11.54;-7.97;44.11;54.75;4.38;0
-3.81;-11.33;-8.15;61.73;67.67;11.23;0
-7.27;-11.13;-8.09;77.96;77.56;34.85;0
-8.58;-11.05;-8.53;90.93;79.19;61.91;0
-8.92;-12.69;-9.45;97.52;47.22;90.49;0
-8.24;-15.5;-10.22;95.08;-0.97;114.63;0
-5.55;-16.09;-10.7;97.47;-61.75;139.52;0
-2.96;-15.7;-10.02;103.72;-110.59;152.34;0
-0.08;-15.06;-10.47;113.11;-113.86;156.99;0
2.44;-14.53;-12.67;122;-75.49;153.34;0
4.48;-16.07;-15.69;131.81;-20.07;159.83;0
4.47;-16.84;-17.22;138.06;10.45;167.38;0
5.17;-16.26;-17.2;126.63;13.53;172.25;0
6.04;-14.04;-16.79;91.12;33.45;164.27;0
6.07;-11.81;-16.5;45.01;34.71;143.35;0
4.67;-10.31;-16.18;-0.96;22.78;127.34;0
2.91;-8.77;-14.09;-34.43;12.76;113.74;0
2.57;-8.07;-10.25;-38.11;-5.65;106.49;0
3.99;-7.25;-8.6;-20.95;-65.15;89.23;0
4.99;-6.06;-10.56;-7.04;-110.46;68.86;0
4.8;-4.61;-12.19;-9.4;-127.16;53.55;0
4.99;-3.15;-12.56;-14.86;-139.61;39.94;0
6.04;-2.11;-12.6;-17.02;-133.14;24.66;0
7.61;-0.19;-11.92;-11.99;-91.83;7.5;0
6.02;-0.38;-8.27;14.46;-48.69;-5.34;0
4.63;-1.13;-7.26;30.52;-49.61;-13.68;0
2.11;-2.53;-5.42;28.94;-102.42;-24.73;0
-1.11;-6.31;-2.34;21.53;-173.94;-43.32;0
-5.73;-9.56;-1;39.89;-228.53;-63.36;0
-11.18;-14.47;-5.03;55.6;-236.13;-55.63;0
-6.48;-19.54;-10.97;38.24;-110.74;-41.38;0
-5.6;-16.27;-12.78;-3.15;81.31;-5.63;0
-6.33;-11.53;-13.15;-48.51;179.61;21.7;0
-4.72;-10.31;-12;-76.21;207.74;41.09;0
-5;-9.29;-13.45;-93.06;206.96;52.83;0
-3.91;-9.2;-15.51;-90.47;189.34;54.4;0
3.2;-10.06;-15.52;-87.74;155.27;48.09;0
10.33;-19.37;-10.84;-98.49;72.64;-1.16;0
14.31;-19.55;0.06;-101.66;-5.25;-64.46;0
8.12;-16.86;-4.92;-19.83;-31.07;-85.72;0
1.97;-9.41;-8.81;23.4;-94.44;-64.07;0
3.47;-4.79;-12.03;23.5;-75.47;-42.94;0
5.31;-2.57;-13.19;23.18;-21.68;-38.18;0
7.49;-2.24;-14.19;23.02;22.25;-52.21;0
9.38;-7.02;-16.53;14.84;41.96;-79.62;0
10.66;-10.93;-18.87;-9.19;26.62;-108.35;0
8.29;-12.31;-19.35;-55.12;24.41;-124.58;0
2.97;-12.56;-18.78;-107.18;39.77;-129.53;0
-1.5;-11.52;-16.18;-141.95;90.68;-132.75;0
-3.66;-10.44;-12.56;-155.21;145.63;-125.42;0
-4.87;-10.23;-10.68;-154.48;153.12;-113.78;0
-4.61;-9.8;-9.37;-140.73;112.77;-101.99;0
-3.5;-9.28;-7.84;-112.21;71.14;-89.7;0
-3.24;-8.81;-7.19;-66.37;41.86;-88.56;0
-3.46;-7.04;-8.52;-28.52;-1.4;-83.91;0
-2.87;-6.23;-10.08;-12.76;-28.36;-79.06;0
-1.15;-7.81;-11.25;-15.01;-19.33;-75.95;0
-0.41;-9.62;-11.8;-24.14;-3.19;-69.5;0
0.36;-11.03;-12.17;-33.45;2.57;-64.15;0
1.04;-11.1;-12.06;-41.11;3.03;-64.36;0
1.2;-10.85;-12.21;-52.6;7.12;-70.1;0
0.4;-11.65;-11.89;-65.62;19.65;-75.72;0
-1.29;-12.56;-11.05;-70.24;44.01;-76.58;0
-3.89;-14;-8.76;-56;86.64;-71.55;0
-6.55;-14.42;-7.47;-23.15;91.39;-56.24;0
-8.08;-13.96;-8.12;-1.1;72.52;-38.74;0
-8.63;-12.71;-8.22;6.63;65.33;-18.95;0
-8.47;-12.01;-7.65;20.8;59.46;1.67;0
-8.71;-12.9;-7;45.77;55.66;23.73;0
-8.97;-13.72;-7.11;75.87;60.5;50.53;0
-8.28;-13.69;-7.64;98.61;65.59;78.92;0
-7.37;-13.4;-8.72;109.46;48.65;108.47;0
-6.05;-14.2;-9.46;108.01;13.73;133.93;0
-2.75;-16.23;-9.52;102.17;-16.84;159.47;0
0.76;-17.05;-9.68;101.83;-30.35;167.92;0
3.54;-15.98;-10.55;112.37;-20.04;159.83;0
4.39;-14.4;-12.04;130.13;-7.91;146.94;0
3.5;-14.86;-14.24;143.13;-14.07;145.11;0
2.01;-16.63;-16.94;144.27;-37.12;151.53;0
0.36;-15.81;-17.81;123.3;-33.75;159.68;0
0.3;-13.2;-17.49;82.35;15.2;159.5;0
1.11;-11.37;-16.97;35.42;25.96;159.53;0
1.81;-9.74;-15.13;-14.28;15.76;158.08;0
2.92;-9.88;-12.22;-34.6;14.87;154;0
4.07;-9.56;-9.1;-24.5;-35.38;138.44;0
4.99;-8.32;-9.33;1.27;-119.48;120.75;0
6.13;-6.52;-12.36;12.3;-156.79;97.75;0
6.08;-4.68;-13.11;8.65;-169.62;78.8;0
6.43;-3.04;-13.31;2.34;-171.23;58.15;0
7.72;-1.47;-13.37;-0.4;-145.66;37.74;0
8.63;0.69;-13.67;-2.95;-91.93;18.03;0
7.9;0.79;-12.31;-2.32;-35.62;-7.13;0
6.47;-0.38;-8.89;0.18;-18.22;-31.04;0
3.13;-0.97;-4.49;14.1;-64.78;-48.55;0
-0.38;-3.11;1.41;26.08;-145.85;-61.3;0
-3.95;-7.8;0.87;40.08;-214.21;-69.31;0
-10.03;-12.13;0.25;69.06;-243.52;-77.88;0
-14.11;-19.55;-5.33;72.6;-220.79;-61.72;0
-12.44;-19.55;-14.55;24.05;-6.42;5.12;0
-7.39;-15.93;-16.01;-42.82;168.41;43.24;0
-4.57;-11.68;-12.89;-90.24;210.01;65.73;0
-4.3;-7.25;-12.75;-106.09;234.78;76.34;0
-1.64;-6.16;-15.04;-95.96;242.32;78.67;0
4.98;-7.16;-17.88;-77.39;209.77;60.21;0
12.98;-17.1;-11.57;-78.32;97.83;8.56;0
17.36;-19.55;-2.35;-108.56;-60.01;-60.35;0
6.38;-19.55;-5.62;-46.79;-54.84;-90.17;0
-5.68;-16.21;-6.91;-17.42;-76.53;-52.35;0
-0.5;-5.34;-7.22;7.43;-31.94;-21.08;0
4.64;-1.88;-12.48;25.32;-53.2;-9.49;0
10.19;-2.19;-13.9;35;-25.25;-31.4;0
13.75;-6.74;-15.88;33.99;21.8;-81.94;0
14.33;-12.25;-18.63;30.91;18.66;-118.98;0
11.32;-11.27;-19.94;-10.78;0.83;-145.32;0
3.57;-12.22;-21.45;-79.4;20.09;-148.62;0
-2.96;-12.18;-19.92;-135.29;69.89;-148.33;0
-4.83;-10.4;-16.05;-175.73;133.96;-148.99;0
-4.44;-9.83;-11.1;-191.06;145.92;-133.92;0
-3.97;-10.13;-9.79;-184.46;133.16;-118.74;0
-2.59;-9.67;-7.49;-160.66;83.43;-113.85;0
-1.54;-9.93;-4.25;-98.99;69.09;-111.02;0
-3.18;-8.52;-5.32;-28.79;-1.27;-103.82;0
-3.9;-6.39;-8.96;-4.3;-45.39;-96.27;0
-2.67;-6.73;-10.58;-5.11;-52.54;-85.4;0
-0.39;-8.57;-11.52;-18.37;-18.74;-77.63;0
1.12;-10.2;-11.91;-33.15;11.48;-75.03;0
1.15;-11.72;-12.54;-40.92;11.31;-73.22;0
-0.21;-12.05;-12.94;-49.55;-2.28;-81.57;0
-1.96;-12.05;-12.29;-64.11;0.48;-86.88;0
-3.65;-13.02;-10.44;-75.15;18.69;-83.61;0
-5.68;-15.29;-6.33;-53.97;56.41;-68.33;0
-4.38;-14.95;-6.49;-12.44;45.09;-47.21;0
-3.96;-12.04;-9.27;4.85;52.29;-29.4;0
-5.32;-11.45;-9.07;11.79;63.33;-10.9;0
-6.56;-12.12;-7.16;26;83.99;7.57;0
-8.98;-12.8;-5.36;56.3;103.91;28.25;0
-9.38;-12.32;-5.5;89.35;118.46;50.01;0
-8.55;-11.05;-7.98;108.56;107.5;69.94;0
-7.72;-10.86;-10.06;107.14;65.93;90.74;0
-6.99;-13.95;-11.2;94.18;20.15;112.79;0
-4.66;-15.94;-11.79;89.79;-50;141.03;0
-2.09;-16.16;-11.56;99.94;-99.14;151.54;0
-1.05;-16.53;-11.2;108.67;-119.86;149.57;0
2.2;-16.62;-13.76;121.26;-85.04;144.74;0
3.84;-15.32;-15.91;131.93;-27.6;147.92;0
3.08;-15.33;-17.01;128.72;-2.27;167.15;0
2.73;-14.78;-16.47;97.86;40.48;169.84;0
2.81;-13.41;-16.1;45.01;43.92;165.41;0
5.2;-12.57;-15.42;0.48;31.22;150.39;0
4.5;-12.15;-11.76;-18.63;45.68;136.68;0
2.8;-10.77;-7.65;-7.15;12.38;136.89;0
2.73;-10.24;-7.6;14.46;-56.98;129.55;0
3.71;-9.31;-10.83;24.69;-103.35;117.59;0
4.81;-7.4;-12.33;21.39;-135.8;101.47;0
5.55;-5.89;-12.65;12.31;-157.95;84.28;0
5.44;-4.94;-12.86;2.69;-175.06;70.65;0
6.6;-4.13;-13.34;-2.08;-167.74;53.45;0
8.2;-2.72;-14;-3.13;-119.25;35.48;0
8.47;-0.11;-14.38;-6.51;-48.59;16.64;0
8.25;-0.09;-13.29;-10.57;25.97;-0.91;0
7.46;-1.3;-9.99;-10.98;46.51;-21.1;0
3.67;-3.02;-5.68;-11.03;-19.17;-52.12;0
0.04;-5.23;0.3;-11.77;-136.49;-73.44;0
-4.29;-9.39;1.74;27.43;-231.45;-80.65;0
-9.05;-15.99;-1.7;77.8;-246;-91.66;0
-11.82;-19.55;-11.73;76.58;-186.78;-56.83;0
-12.16;-18.26;-17.72;-4.26;98.84;5.4;0
-9.94;-12.4;-15.67;-79.63;230.18;41.63;0
-8.68;-8.28;-12.85;-117.27;250.29;67.91;0
-6.94;-8.01;-15.35;-109.09;254.27;73.04;0
0.74;-5.91;-13.03;-73;241.53;54.44;0
10.72;-10.81;-10.31;-69.82;111.35;21.71;0
17.37;-19.55;-5.95;-97.36;-128.3;-32.33;0
19.08;-19.55;-4.32;-51.59;-90.22;-85.73;0
5.05;-15.01;-8.55;7.21;-76.2;-96.87;0
-0.16;-9.48;-10.17;10.56;-69.05;-64.02;0
1.62;-3.41;-11.87;8.91;6.56;-49.19;0
4.97;-2.61;-13.22;10.28;18.9;-44.34;0
9.17;-5.38;-14.46;11.15;35.35;-69.56;0
9.93;-9.48;-17.32;5.09;39.83;-93.96;0
9.31;-11.67;-18.8;-11.38;34.84;-114.96;0
5.83;-11.11;-19.22;-47.71;43.19;-127.19;0
1.04;-11.94;-19.26;-95.48;74.02;-133.57;0
-2.23;-10.95;-16.72;-135.91;134.69;-137.47;0
-3.05;-10.3;-12.94;-154.47;158.91;-133.65;0
-3.04;-10.58;-10.95;-158.31;127.54;-128.86;0
-4.14;-10.25;-9.4;-144.76;69.32;-114.77;0
-3.41;-10.86;-6.24;-112.96;54.68;-99.69;0
-3.78;-10.29;-5.33;-53.95;31.63;-92.97;0
-3.66;-8.21;-7.59;-10.11;-16.33;-83.37;0
-2.88;-7.63;-9.79;3.35;-38.15;-75.38;0
-1.65;-8.67;-11.77;-5.82;-28.94;-68.74;0
-0.57;-10.76;-12.23;-21.67;-0.18;-67.89;0
-0.59;-13.04;-12.66;-35;1.8;-65.44;0
-0.78;-13.59;-13.03;-45.97;-6.33;-69.62;0
-1.66;-12.12;-12.52;-59.73;-2.46;-76.29;0
-2.98;-12.06;-10.83;-71.32;10.52;-72.87;0
-4.85;-13.15;-4.92;-53.99;68.22;-59.13;0
-4.48;-13.58;-4.27;-7.83;53.98;-43.05;0
-4.16;-12.42;-8.61;15.49;43.81;-31.63;0
-5.49;-10.96;-9.61;24.01;51.53;-16.75;0
-5.74;-10.68;-8.81;32.59;68.19;-1.09;0
-7.18;-10.5;-7.32;48.49;77.92;22.03;0
-6.59;-10;-7.05;72.76;88.02;43.07;0
-6.09;-9.34;-8.65;90.57;79.21;62.73;0
-6.64;-10.46;-10.56;92.53;45.53;83.67;0
-7.47;-15.17;-12.43;89.45;-17.12;103.86;0
-7.06;-16.9;-13.1;99.39;-81.89;127.34;0
-6;-15.91;-11.67;102.83;-117.68;146.26;0
-4.88;-15.5;-10.8;93.2;-97.23;156.8;0
-0.31;-15.34;-11.69;92.4;-52.75;165.01;0
3.01;-16.82;-13.06;107.73;-7.93;174.56;0
4.28;-17.09;-15.24;117.32;-17.58;182.63;0
5.9;-15.72;-16.23;114.25;-20.55;178.02;0
6.22;-13.01;-15.68;91.55;-34.74;167.67;0
6.24;-10.93;-15.52;55.25;-30.11;152.31;0
4.36;-10.38;-15.26;15.08;-8.04;141.41;0
2.58;-9.69;-13.06;-11.5;18.34;139.72;0
2.87;-9.27;-10.36;-16.63;-15.59;132.57;0
3.94;-8.53;-10.24;-7.89;-74.52;120.54;0
4.55;-7.51;-11.31;0.4;-123.52;108.52;0
4.84;-6.73;-12.44;1.35;-153.61;95.77;0
5.62;-5.82;-13.11;-2.26;-159.94;76.98;0
6.37;-4.44;-13.1;-3.56;-138.02;59.55;0
7.49;-1.61;-12.55;-1.62;-90.93;43.04;0
8.36;-0.58;-11.82;3.33;-36.84;22.77;0
8.72;-1.38;-10.55;1.29;-15.64;-1.88;0
7.64;-2.21;-8.18;-2.67;-66.38;-38.88;0
2.82;-4.64;-2.95;6.82;-139.88;-69.53;0
-0.65;-8.43;0.83;41.4;-197.23;-81.19;0
-3.57;-11.39;-1.15;80.26;-229.17;-87.97;0
-8.25;-16.08;-6.07;88.37;-205.24;-80.83;0
-10.49;-19.38;-12.05;52.01;-74.94;-44.12;0
-9.49;-16.12;-17.14;-23.25;119.37;5.46;0
-7.51;-11.18;-15.61;-93.39;233.45;50.96;0
-5.17;-8.43;-14.49;-121.67;254.27;63.04;0
-1.75;-8.61;-16.81;-118.91;254.27;47.83;0
3.9;-11.9;-15.71;-106.04;220.99;28.94;0
8.88;-19.55;-11.16;-95.27;120.05;-9.87;0
13.13;-19.55;0.21;-114.61;-25.82;-51.62;0
5.62;-16.33;-3.05;-37.82;-45.8;-61.85;0
-0.86;-8.74;-6.86;6.14;-84.33;-35.46;0
2.21;-2.58;-10.17;16.72;-65.56;-12.87;0
5.29;-0.45;-12.85;22.4;-17.22;-17.27;0
7.97;-2.14;-13.95;30.43;13.87;-43.66;0
9.85;-6.89;-16.27;30.91;18.63;-82.04;0
11.18;-13.08;-19.67;18.65;18.18;-118.92;0
7.92;-16.29;-19.97;-24.31;-3.77;-138.34;0
2.41;-15.24;-19.6;-84.89;3.54;-139.48;0
-1.78;-10.45;-17.18;-129.08;71.13;-140.07;0
-2.62;-8.36;-13.82;-158.02;141.08;-131.49;0
-2.82;-8.83;-11.24;-167.58;149.39;-114.77;0
-2.73;-9.79;-10.32;-163.85;96.48;-103.37;0
-0.41;-9.44;-9.55;-144.89;42.83;-103.03;0
-0.29;-8.66;-8.66;-117.37;12.41;-109.45;0
-0.24;-8.96;-3.55;-55.23;-1.36;-120.8;0
-1.35;-6.93;-8.19;-23.35;-14.87;-116.87;0
-1.64;-7.52;-11.01;-30.33;-8.74;-107.73;0
-2.23;-10.26;-12.36;-51.11;0.08;-93.95;0
-2.66;-12.74;-12.19;-63.85;16.19;-79.33;0
-2.76;-12.6;-11.01;-57.92;38.66;-71.46;0
-2.38;-12.39;-11.33;-44.89;52.3;-64.85;0
-1.9;-12.36;-11.52;-37.8;64.26;-62.32;0
-1.87;-12.69;-11.49;-35.24;59.78;-63.44;0
-4.25;-13.53;-10.2;-32.63;51.72;-58.46;0
-7.38;-13.58;-7.89;-22.56;50.84;-43.19;0
-8.06;-12.3;-7.58;-4.62;44.34;-21.22;0
-6.53;-11.32;-8.71;12.55;30.74;-1.75;0
-5.65;-11.04;-9.36;26.95;20.2;14.72;0
-5.54;-10.29;-9.09;41.43;22.08;28.86;0
-6.04;-10.18;-6.92;63.25;52.87;44.89;0
-6.02;-10.53;-5.53;92.77;90.48;66.57;0
-5.74;-10.91;-7.2;110.78;87.55;92.69;0
-5.82;-13.58;-10.24;107.45;40.46;116.59;0
-5.31;-17.05;-11.7;94.65;-23.65;135.2;0
-2.76;-17.36;-11.74;103.24;-89.89;155.62;0
-0.43;-16.93;-11.4;127.32;-120.15;160.47;0
0.88;-16.43;-11.73;136.33;-91.64;152.89;0
2.63;-16.87;-13.93;134.32;-6.52;149.86;0
3.89;-16.73;-16.51;130.75;33.18;162.43;0
4.07;-15.7;-17.25;124.38;27.92;170.49;0
4.57;-13.4;-16.52;99.75;40.7;168.85;0
4.72;-11.54;-15.47;55.02;40.48;159.64;0
4.87;-10.46;-14.29;9.18;32.72;145.73;0
2.61;-10.78;-11.87;-9.95;41.13;138.02;0
1.78;-10.32;-9.73;-9.77;1.79;134.29;0
1.82;-10.01;-9.67;-0.99;-56.42;120.46;0
2.99;-8.82;-11.47;5.21;-105.27;104.02;0
3.82;-7.21;-12.29;5.55;-142.58;89.29;0
4.51;-5.51;-12.45;2.6;-170.75;73.73;0
5.54;-4.29;-12.84;-0.74;-185.43;53.49;0
6.57;-3.17;-13.2;-0.74;-171.84;34.39;0
6.86;-1.41;-13.17;0.39;-133.66;19.01;0
7.17;-0.42;-12.85;1.92;-86.27;3.54;0
7.9;-0.45;-11.22;3.91;-34.44;-12.33;0
5.84;-1.34;-8.07;9.88;-25.24;-29.59;0
2.71;-3.17;-2.42;17.3;-87.98;-44.11;0
-0.33;-6.64;0.79;33.92;-173.04;-61.37;0
-5.27;-10.46;-2.33;62.64;-205.57;-85.65;0
-11.21;-16;-4.23;81.5;-206.01;-86.15;0
-11.32;-19.4;-9.66;56.99;-60.44;-43.75;0
-9.39;-15.49;-11.88;-14.34;129.75;23;0
-5.91;-13.77;-11.76;-66.9;197.41;59.96;0
-3.48;-10.57;-11.61;-87.7;220.15;67.02;0
-3.41;-7.42;-12.59;-96.2;233.6;68.21;0
0.01;-4.52;-15;-86.59;233.16;56.08;0
5.47;-4.32;-16.17;-65.82;210.69;29.03;0
10.94;-15.78;-14.16;-67.34;145.88;-27.88;0
10.59;-19.55;-11.34;-85.95;-48.34;-100.23;0
-0.11;-19.55;-4.79;-68.46;-111.27;-110.51;0
-19.7;-19.55;-6.52;-29.71;-128.53;-59.64;0
-6.58;-4.6;-2.73;12.37;-52.16;23.09;0
5.65;-0.86;-6.18;38.35;-119.74;59.68;0
13.58;-1.66;-12.59;52.48;-111.11;44.57;0
16.88;-0.96;-15.86;58.66;1.22;-1.14;0
17.12;-4.77;-18.18;49.3;71.65;-46.43;0
15.67;-8.33;-20.07;29.01;108.25;-93.63;0
11.36;-11.68;-19.81;-12.74;77.96;-146.61;0
2.58;-14.86;-21.38;-71.51;3.41;-168.02;0
-6.54;-15.75;-20.14;-133.63;35.63;-156.26;0
-9.57;-12.7;-15.53;-176.19;129.75;-136.68;0
-6.94;-10.2;-11.81;-184.31;162.49;-105.88;0
-3.92;-10.28;-10.01;-176.73;136.09;-89.29;0
-2.41;-10.04;-8.53;-149.89;86.47;-86.97;0
-1.19;-10.44;-4.37;-90.73;57.15;-92.56;0
-2.61;-9.27;-6.08;-30.37;-9.26;-94.37;0
-3.14;-7.12;-9.29;-1.53;-55.97;-88.56;0
-1.65;-7.18;-11.09;-1.05;-43.51;-87.96;0
0.05;-8.08;-11.5;-12.76;-4.85;-83.85;0
1.04;-9.07;-11.52;-23.66;14.65;-77.66;0
1.25;-10.41;-11.68;-31.44;23.48;-74.79;0
0.89;-11.66;-11.81;-40.3;23.25;-78.58;0
-0.47;-11.37;-11.56;-50.3;26.77;-77.25;0
-1.62;-11.13;-10.88;-58.39;36.16;-79.91;0
-2.39;-12.04;-10.22;-56.24;44.4;-79.82;0
-2.5;-12.16;-9.9;-45.44;61.38;-74.71;0
-2.36;-11.71;-9.59;-32.6;79.09;-67.04;0
-4.01;-12.02;-8.9;-20.39;90.42;-53.62;0
-7.28;-12.89;-7.06;-3.82;100.29;-36.59;0
-9.68;-12.87;-5.87;22.66;96.06;-17;0
-9.39;-11.38;-6.94;44.34;80.3;0.31;0
-7.63;-10.1;-8.41;56.44;72.14;14.47;0
-6.04;-9.35;-9.41;68.78;54.03;25.2;0
-6.07;-9.36;-10.66;76.17;26.24;40.6;0
-7.42;-10.84;-12.32;81;-15.13;62.85;0
-9.13;-14.78;-13.45;91.03;-89.77;93.06;0
-8.85;-16.73;-13.76;112.24;-166.97;117.92;0
-7.43;-17.53;-12.45;117.3;-180.56;143.34;0
-3.06;-17.4;-10.71;107.18;-121.03;163.36;0
2.54;-16.03;-11.69;108.83;-37.13;172.05;0
6.4;-18.21;-12.02;121.93;25.6;175.18;0
7.6;-19.22;-13.21;123;36.61;179.2;0
8.53;-17.47;-14.67;112.96;18.84;182.23;0
8.05;-15.36;-14.7;93.08;1.11;171.41;0
6.61;-12.93;-14.45;66.79;4.73;152.67;0
3.14;-11.23;-12.87;35.59;23.86;138.79;0
0.82;-10.64;-11.6;13.77;43.67;140.17;0
0.48;-10.67;-10.71;7.18;30.85;144.78;0
1.76;-10.04;-10.85;7.02;-3.13;139.46;0
2.19;-9.18;-11.43;4.8;-44.91;126.21;0
2.46;-8.06;-12.11;0.85;-85.26;111.76;0
3.34;-6.35;-12.3;-2.25;-116.42;97.63;0
5.28;-4.94;-12.66;-3.09;-129.71;78.19;0
7.2;-2.99;-12.84;1.57;-115.01;56.25;0
8.02;-0.87;-12.42;7.12;-86.52;35.61;0
7.97;0.26;-12.09;10.85;-63.91;17.76;0
8.53;0.19;-11.28;8.4;-57.59;-3.07;0
6.47;-0.48;-9.34;5.08;-87.85;-27.21;0
2.91;-1.92;-6.57;3.98;-137.73;-45.82;0
1.26;-3.83;-3.47;6.72;-176.82;-65.9;0
-0.78;-5.3;-1.97;22.31;-186.45;-71.93;0
-3.56;-7.96;-4.36;40.61;-161.49;-74.22;0
-7.14;-13.8;-7.37;33.57;-122.42;-80.76;0
-10.54;-17.41;-11.42;3.14;-17.94;-52.28;0
-14.16;-19.13;-12.99;-51.42;142.45;11.57;0
-9.31;-17.51;-9.94;-99.56;190.53;48.22;0
-6.76;-11.82;-8.78;-111.49;178.96;45.93;0
-5.69;-8.79;-11.94;-99.76;167.98;39.05;0
-1.96;-7.31;-14.86;-79.63;143.28;32.02;0
6.69;-10.94;-13.4;-59.7;90.42;6.86;0
10.05;-19.55;-10.6;-74.37;-8.68;-43.65;0
7.82;-19.55;0.61;-49.01;-61.17;-74.37;0
-5.63;-19.21;-7.29;15.94;-116.59;-48.65;0
-0.66;-9.02;-8.79;25.23;-95.23;-5.31;0
4.91;-3.21;-11.56;16.33;-80.81;3.15;0
8.77;-0.26;-14.95;16.53;-69.86;-5.47;0
13.17;-1.06;-16.29;19.52;-23.74;-30.1;0
15.45;-6.73;-18.53;9.18;33.34;-68.33;0
14.36;-10.71;-20.51;-17.99;53.68;-108.09;0
9.6;-10.75;-20.49;-72.6;53.32;-142.16;0
0.68;-12.71;-20.23;-140.47;42.88;-141.96;0
-5;-14.17;-17.48;-188.54;91.17;-124.59;0
-6.53;-13.58;-11.99;-196.31;176.21;-115.42;0
-4.52;-12.08;-8.04;-171.27;210.69;-107.55;0
-2.31;-10.91;-4.24;-122.57;147.76;-103.34;0
-1.26;-9.56;-5.92;-64.71;67.27;-94.53;0
-2.07;-8.69;-8.3;-31.86;12.45;-87.38;0
-2.69;-8.28;-10.16;-21.27;-10.27;-82.32;0
-2.55;-7.21;-10.73;-20.45;-10.33;-82.95;0
-0.77;-6.69;-10.85;-18.99;-1.46;-87.02;0
0.44;-7.17;-11.05;-14.11;-4.94;-88.86;0
0.95;-8.44;-12.02;-12.44;-14.01;-88.42;0
1.85;-9.86;-12.76;-16.61;-9.99;-89.08;0
1.66;-11.27;-12.97;-23.99;-1.52;-90.81;0
0.67;-12.1;-13.19;-41.23;8.26;-87.94;0
-0.29;-11.5;-13;-63.37;30.93;-90.19;0
-1.32;-11.31;-12.48;-84.78;42.74;-93.77;0
-2.62;-11.49;-11.43;-98.86;36.58;-93.88;0
-3.93;-12.1;-10.02;-94.34;18.7;-85.83;0
-4.88;-13.85;-6.39;-64.24;45.55;-70.33;0
-4.37;-14.22;-6.35;-18.36;48.92;-54.73;0
-4.79;-13.56;-7.79;8.44;45.7;-37.04;0
-5.86;-12.32;-8.87;15.18;48.77;-21.79;0
-6.18;-11.8;-9.21;17.18;51.64;-6.43;0
-5.65;-11.58;-8.64;26.1;60.67;9.71;0
-4.49;-11.08;-7.86;44.82;73.24;24.61;0
-3.81;-10.39;-8.32;66.53;74.87;39.89;0
-4.97;-10.33;-10.02;79.88;58.51;56.08;0
-6.65;-13.41;-11.81;86.47;18.22;78.06;0
-7.3;-17.47;-12.78;90.72;-48.12;111.86;0
-6.13;-16.42;-11.99;106.79;-117.04;138.01;0
-3.67;-15.58;-10.5;117.15;-121.68;151.27;0
-0.22;-14.96;-10.16;120.12;-61.34;160.08;0
3.62;-15.39;-10.31;126.6;10.44;172.26;0
5.62;-16.82;-11.96;129.66;56.47;175.37;0
5.88;-16.75;-14.33;123.99;51.5;176.6;0
7.53;-14.97;-14.72;109.65;40.35;173.57;0
6.27;-12.37;-14.17;88.54;17.09;162.86;0
5.14;-11.52;-13.86;69.74;14.79;152.52;0
2.48;-10.78;-12.87;46.52;19.96;143.58;0
0.75;-10.23;-12.02;31.2;19.5;144.23;0
0.55;-10.36;-11.55;23.17;0.21;143.94;0
1.47;-10.07;-11.67;20.11;-37.71;139.56;0
2.53;-9.26;-12.16;18.41;-75.35;133.62;0
3.39;-8.02;-12.74;17.74;-110.81;123.14;0
4.41;-7.04;-13.61;12.12;-130.23;107.54;0
5.64;-5.88;-14.18;8.05;-132.23;91.73;0
7.27;-4.83;-14.71;6.63;-108.09;71.06;0
8.05;-2.38;-14.82;3.38;-68.51;51.21;0
8.7;-0.58;-15.21;-1.53;-25.28;32.01;0
10.17;-0.39;-14.22;-10.43;11.36;8.09;0
8.83;-1.63;-9.96;-17.97;-21.39;-25.26;0
4.3;-3.05;-3.46;-4.61;-97.42;-58.56;0
0.16;-4.91;1.1;16.39;-199.74;-78.24;0
-2.47;-7.47;0.63;41.78;-246;-95.95;0
-7.21;-9.68;-2.34;63.98;-246;-99.63;0
-12.03;-16.64;-8.33;48.16;-186.93;-84.37;0
-13.58;-19.53;-15.23;-15.53;7.51;-30.47;0
-11.69;-14.99;-12.88;-79.29;177.48;21.09;0
-7.15;-11.87;-9.32;-108.45;211.07;38.99;0
-6.82;-10.43;-9.81;-101.9;227.8;47.7;0
-4.95;-9.33;-14.04;-79.83;232.43;55.79;0
3.93;-8.02;-13.53;-69.52;176.33;47.45;0
12.08;-17.26;-9.55;-80.6;12.46;10.7;0
15.62;-19.55;-0.35;-59.89;-67.12;-43.21;0
7.98;-16.81;-7.52;15.33;-81.83;-53.07;0
2.5;-10.33;-10.86;32.76;-69.35;-30.37;0
4.48;-4.67;-13;20.42;-1.63;-16.03;0
5.84;-2.01;-14.49;14.98;39.48;-18.47;0
8.41;-3;-15.89;10.27;56.41;-41.55;0
9.77;-7.16;-17.86;-3.58;41.16;-83.2;0
9.28;-11.86;-20.05;-27.4;8.46;-116.27;0
6.07;-13.67;-20.08;-62.81;0.97;-124.79;0
-0.66;-14.24;-18.59;-108.89;29.02;-117.43;0
-3.94;-12.21;-15.93;-141.65;101.94;-109.46;0
-3.42;-10.32;-12.08;-153.01;165.99;-105.8;0
-2.6;-9.57;-9.15;-148.53;169.46;-97.46;0
-0.84;-9.59;-7.19;-132.6;130.68;-93.23;0
-0.36;-10.2;-6.74;-92.86;87.48;-86.85;0
-0.8;-9.99;-8.02;-50.21;43.52;-85.04;0
-1.66;-9.03;-10;-23.35;8.03;-86.27;0
-1.52;-7.5;-10.99;-12.7;-4.32;-90.59;0
-0.72;-7.58;-11.21;-11.09;-0.62;-92.35;0
0.07;-8.2;-11.59;-12.48;6.21;-92.02;0
1.01;-9.23;-11.86;-14.24;13.12;-92.53;0
0.66;-9.92;-12.11;-19.1;15.57;-92.25;0
-0.37;-10.6;-12.42;-29.47;6.63;-90.55;0
-1.17;-10.9;-12.48;-48.59;-0.17;-91.03;0
-1.34;-10.59;-11.8;-69.32;4.76;-90.57;0
-1.62;-10.29;-10.66;-81.26;23.47;-90.27;0
-2.73;-10.93;-7.89;-72.56;46.18;-88.8;0
-3.8;-12.16;-6.66;-33.73;51.32;-79.56;0
-2.57;-12.22;-10.43;-9.92;36.91;-70.52;0
-3.38;-12.05;-11.77;-10.41;38.67;-58.32;0
-4.87;-12.22;-10.11;-12.23;54.83;-40.95;0
-7.07;-12.44;-7.63;4.17;73.3;-20.35;0
-8.06;-12.02;-7.03;29.77;82.66;-2.88;0
-8.32;-11.72;-7.99;47.7;82.84;17.02;0
-6.93;-11.65;-8.8;62.03;85.16;32.49;0
-5.31;-12.06;-9.73;71.12;69.54;49.03;0
-4.9;-12.28;-11.03;76.03;38.61;68.13;0
-5.13;-14.03;-12.52;89.59;-16.63;96.31;0
-4.78;-15.38;-12.7;100.92;-94.7;121.7;0
-3.38;-16.08;-12.2;108.56;-131.12;135.96;0
-0.66;-16.82;-11.54;104.14;-101.23;153.96;0
2.76;-15;-11.29;98.69;-28.43;165.16;0
4.81;-14.3;-10.77;97.62;34.51;166.89;0
4.76;-16.12;-11.35;100.21;72.59;166.44;0
4.31;-17.28;-13.13;97.62;42.59;168.56;0
4.79;-16.34;-13.85;88.41;14.86;165.51;0
3.92;-13.44;-12.73;74.21;12.66;156.19;0
3.31;-11.79;-12.36;53.23;14.7;148.23;0
1.69;-11.08;-11.58;35.77;5.3;139.05;0
0.95;-10.08;-11.05;27.42;-5.94;138.55;0
1.21;-9.41;-11.07;23.7;-26.85;139.02;0
1.9;-9.15;-11.36;20.36;-56.74;133.4;0
2.67;-8.39;-11.77;17.45;-89.32;122.83;0
3.42;-7.41;-12.34;14.15;-116.84;111.36;0
4.47;-5.96;-12.55;11.89;-131.58;101.14;0
5.55;-5.07;-13.41;8.4;-133.94;89.95;0
7.12;-3.69;-13.97;5.14;-114.51;71.65;0
8.07;-1.69;-13.89;1.12;-79.08;55.43;0
8.55;0.17;-13.65;-1.44;-36.82;37.5;0
8.99;0.01;-13.25;-6.04;4.34;19.02;0
7.79;-0.79;-10.28;-13.26;-6.97;-9.01;0
3.27;-2.15;-5.89;-17.12;-66.91;-36.96;0
0.86;-4.14;-1.48;-15.21;-150.94;-67.84;0
-2.6;-7.43;0.79;11.69;-203.07;-85.93;0
-9.04;-12.97;-1.54;46.56;-233.92;-88.17;0
-11.81;-19.55;-6.89;51.46;-177.79;-89.66;0
-16.01;-19.55;-16.77;-0.54;30.97;-25.53;0
-15.7;-14.28;-12.67;-75.09;174.35;33.73;0
-10.39;-10.32;-9.46;-106.6;182.73;54.76;0
-8.5;-8.4;-11.7;-97.95;186.45;55.28;0
-3.09;-6.45;-14.92;-73.44;172.1;58.53;0
7.28;-6.43;-11.35;-61.41;104.45;40.22;0
15.89;-19.55;-7.35;-98.8;-92.55;-13.62;0
18.3;-19.55;4.02;-43.98;-95.5;-63.69;0
4.5;-19.55;-5.03;49.89;-102.1;-68.04;0
2.06;-10.04;-10.17;54.6;-84.45;-25.85;0
5.42;-2.79;-13.29;36.34;-21.02;-15.42;0
8.12;-0.99;-16.12;27.42;17.83;-16.43;0
11.28;-1.86;-16.31;25.56;51.87;-43.59;0
12.98;-7.32;-18.91;8.7;60.25;-88.77;0
12.22;-12.82;-21.18;-22.43;44.8;-127.62;0
7.35;-13.52;-21;-72.57;27.8;-150.11;0
-1.2;-14.83;-19.78;-137.63;34.41;-140.05;0
-5.95;-14.04;-15.84;-172.07;92.84;-136.01;0
-6.99;-12.01;-13.05;-182.82;155.29;-132.75;0
-5.33;-9.48;-8.99;-176.79;141.18;-115.54;0
-3.3;-9.33;-7.06;-156.9;94.06;-102.2;0
-1.59;-9.97;-4.96;-104.47;54.4;-89.19;0
-0.36;-9.8;-6.08;-46.32;-7.66;-88.46;0
-1.36;-7.76;-9.38;-15.86;-44.03;-87.63;0
-1.22;-6.93;-10.77;-6.53;-41.77;-90.69;0
0.05;-7.32;-11.43;-9.52;-12.93;-89.08;0
1.64;-7.69;-12.02;-17.96;10.21;-86.28;0
2.86;-8.92;-12.56;-27.82;35.54;-90.36;0
2.02;-10.47;-13.12;-41.95;34.81;-94.98;0
-0.22;-11.58;-12.84;-61.26;11.82;-100.88;0
-2.19;-11.72;-11.91;-81.99;-6.66;-101.5;0
-3.14;-11.72;-11.05;-93.45;-1.09;-98.69;0
-4.35;-12.44;-6.77;-75.88;38.72;-91.44;0
-4.46;-12.35;-5.87;-30.86;35.25;-80.22;0
-2.76;-11.7;-10.46;-11.42;30.24;-68.6;0
-2.57;-10.99;-12.22;-15.41;32.05;-54.2;0
-2.59;-10.52;-10.89;-21.21;36.6;-42.63;0
-3.62;-10.46;-9.14;-13.28;49.17;-32.5;0
-4.76;-10.44;-9.29;5.44;53.28;-21.71;0
-5.81;-10.33;-10.04;23.96;53.77;-8.25;0
-6.85;-10.83;-10.6;40.84;48.36;11.57;0
-7.52;-12.2;-9.93;57.43;48.39;36.15;0
-8.01;-14.63;-9.87;70.05;37.66;66.84;0
-8.37;-16.24;-10.81;82.21;-6.72;97.11;0
-6.41;-16.73;-10.93;94.88;-83.21;126.87;0
-2.81;-17.15;-10.66;104.82;-120.13;150.4;0
2.07;-16.63;-10.56;111.11;-99.37;159.44;0
5.43;-14.71;-10.22;111.08;-34.47;161.28;0
7.88;-14.35;-10.65;111.98;29.67;161.44;0
7.21;-14.48;-11.41;115.32;66.22;156.47;0
4.58;-14.82;-13.46;111.05;46.94;156.57;0
3.85;-14.06;-14.53;97.81;24.35;152.86;0
2.08;-12.43;-14.05;74.69;35.64;146.69;0
0.51;-12.22;-13.41;50.26;46.71;150.36;0
-0.11;-12.05;-12;31.11;45.5;154.18;0
0.28;-11.81;-11.27;24.63;31.12;158.74;0
0.83;-11.18;-11.07;23.46;-2.34;155.43;0
1.61;-10.69;-11.5;23.37;-47.83;147.54;0
2.64;-9.5;-12.6;21.89;-91.81;138.37;0
3.35;-8.43;-13.26;18.48;-124.99;129.34;0
3.98;-7.27;-13.84;11.17;-142.49;116;0
4.86;-6.26;-13.93;1.62;-143.17;99.1;0
6.05;-4.99;-13.96;-3.93;-131.91;80.98;0
7.06;-3;-13.75;-5.11;-109.42;63.12;0
7.78;-1.1;-13.34;-5.52;-79.84;44.56;0
8.59;0.22;-13.78;-5.55;-35.78;26.87;0
8.22;0.16;-12.17;-10.93;-4.35;2.52;0
5.26;-0.58;-8.75;-15.34;-18.62;-24.08;0
0.53;-2.42;-3.62;-11.34;-72.84;-45.5;0
-2.37;-6.06;1.09;5.91;-147.34;-74.56;0
-7.38;-9.29;0.75;44.31;-196.88;-83.04;0
-11.57;-16.6;-2.23;74.18;-221.17;-102.68;0
-17.51;-19.55;-9.93;63.04;-127.56;-61.95;0
-15.14;-18.18;-13.04;-3.2;60.2;13.1;0
-8.87;-12.72;-10.89;-52.68;94.77;42.74;0
-4.74;-9.39;-10.93;-68.35;97.85;45.02;0
-3.68;-7.48;-13.58;-61.97;128.61;52.65;0
1.41;-4.7;-15.07;-52.42;134.86;56.47;0
9.72;-3.73;-13.13;-55.04;90.12;36.94;0
17.19;-16.91;-11.99;-90.62;-28.07;-22.92;0
19.52;-19.55;-1.76;-77.77;-47.42;-85.5;0
1.31;-19.55;-10.42;-26.33;-43.73;-105.45;0
-7.38;-14.07;-10.47;-19.7;-24.75;-53.56;0
0.85;-6.36;-10.78;-21;8.73;-12.75;0
5.48;-2.98;-12.78;-17.15;-16.53;-0.88;0
10.89;-3.78;-13.78;-10.37;10.41;-15;0
14.86;-7.85;-14.79;-8.01;63.17;-64.84;0
15.14;-11.58;-16.86;-9.62;67.7;-112.05;0
10.67;-10.76;-17.53;-33.76;45.87;-144.38;0
3.61;-11.8;-17.75;-75.92;30.12;-142.72;0
-2.52;-12.08;-17.59;-109.83;67.98;-144.21;0
-5.03;-11.79;-15.7;-127.77;119.89;-138.72;0
-4.81;-10.68;-13.4;-126.5;149.03;-125.49;0
-3.15;-10.09;-12.44;-120.49;141.59;-107.49;0
-1.63;-10.36;-11.28;-103.23;115.85;-98.37;0
-1.98;-9.18;-10.81;-82.11;67.1;-100.49;0
-2.32;-8.09;-10.86;-65.4;20.94;-100.69;0
-2.81;-7.15;-10.82;-57.43;-3.84;-98.08;0
-2.26;-6.73;-10.92;-54.03;-15.95;-96.59;0
-1.44;-6.91;-11.01;-54.33;-20.55;-96.33;0
-0.83;-8.21;-11.1;-57.06;-8.88;-92.33;0
-0.59;-9.93;-11.11;-58.13;11.61;-84.77;0
-0.46;-11.19;-10.91;-55.13;21.61;-72.08;0
-0.24;-11.36;-10.2;-52.67;16.48;-61.63;0
0.93;-10.73;-10.52;-50.72;24.99;-61.95;0
0.56;-11.18;-10.91;-44.69;40.4;-67.39;0
-1.26;-11.86;-11.28;-34.55;41.89;-68.01;0
-2.75;-12.22;-11.71;-27.57;41.12;-62.9;0
-2.95;-12.3;-11.96;-27.48;39.77;-53.85;0
-2.03;-11.55;-11.88;-28.7;39.96;-43.88;0
-0.71;-10.35;-11.55;-23.98;43.58;-38.1;0
-1.2;-10.38;-11.07;-13.7;59.04;-31.15;0
-3.6;-10.42;-10.84;-0.16;77.09;-22.28;0
-6.09;-10.88;-9.93;11.85;86.5;-9.3;0
-8.2;-11.73;-8.66;27.44;85.09;8.02;0
-8.6;-12.78;-7.88;51.38;71.79;28.23;0
-7.23;-13.79;-8.28;72.96;56.03;46.94;0
-6.91;-14.11;-9.61;82.64;19.85;74.45;0
-6.26;-15.06;-11.04;90.14;-29.78;103.08;0
-3.91;-15.75;-11.38;98.37;-94.33;135.56;0
-0.87;-16.36;-11.93;106.08;-113.42;151.65;0
2.21;-16.06;-11.69;109.41;-71.03;153.47;0
4.82;-14.74;-12.34;108.4;1.87;151.87;0
5.73;-14.48;-12.81;108.49;49.67;154.12;0
4.69;-14.57;-13.65;113.24;54.25;149.7;0
3.24;-14.78;-14.5;104.22;25.59;146.97;0
2.46;-13.74;-14.79;82.16;7.32;144.24;0
1.6;-11.61;-13.71;54.53;15.87;139.5;0
1.71;-11.39;-12.48;35.04;5.75;139.91;0
1.1;-10.83;-11.15;26.24;-3.34;139.44;0
1.34;-10.56;-10.65;26.51;-22.83;134.39;0
1.54;-9.65;-11.12;31.54;-47.83;132.99;0
1.59;-9.41;-11.74;31.35;-79.4;125.66;0
2.28;-8.68;-12.8;28.82;-101.14;116.24;0
2.95;-7.46;-13.41;26.27;-116.76;106.75;0
3.35;-6.89;-13.91;19.1;-126.62;95.76;0
4.28;-5.78;-14.44;10.68;-130.32;82.06;0
5.38;-4.42;-14.55;2.36;-123.37;67.81;0
5.69;-3.13;-13.52;-2.27;-104.13;61.59;0
6.19;-2.69;-11.88;5.24;-74.43;52.59;0
5.87;-2.6;-9.57;16.64;-60.98;41.96;0
4.11;-3.57;-7.37;23.79;-86.46;25.19;0
1.68;-5.1;-5.83;34.72;-133.72;0.61;0
-0.88;-6.24;-3.99;49.78;-174.68;-26.36;0
-3.38;-8.14;-4.07;63.68;-193.43;-41.55;0
-6.1;-9.84;-5.99;67.52;-183.3;-42.13;0
-5.44;-11.55;-9.13;52.93;-135.04;-33.74;0
-5.91;-10.73;-12.94;8.81;-31.81;-13.04;0
-7.56;-10.62;-13.39;-42.75;73.93;11.26;0
-6.9;-10.99;-12.17;-77.82;134.59;28.59;0
-6.51;-12;-11.39;-93.85;162.83;33.4;0
-3.95;-11.58;-11.91;-87.07;145.91;25.24;0
2.27;-10.29;-11.63;-77.5;81.64;11.21;0
7.7;-19.37;-7.52;-73.26;-12.55;-16.93;0
9.24;-19.55;-4.71;-40.64;-67.97;-62.37;0
4.29;-19.4;-9.46;-1.43;-110.53;-66.62;0
5.62;-9.05;-12.62;8.65;-68.54;-39.06;0
8.05;-4.36;-13.5;-4.75;-27.3;-22.52;0
9.59;-0.58;-14.13;-15.09;4.96;-28.9;0
11.12;0.41;-14.89;-25.55;35.08;-55.81;0
11.98;-3.38;-17.11;-47.92;47.89;-93.28;0
10.5;-9.54;-18.68;-77.6;30.36;-124.66;0
6.78;-13.66;-18.67;-106.09;14.51;-144.61;0
1.8;-15.29;-17.54;-139.87;34.57;-143.05;0
-4.17;-14.57;-14.08;-153.16;84.6;-124.74;0
-3.61;-12.54;-10.51;-137.59;152.24;-116.26;0
-2.09;-11.35;-8.41;-108.82;174.14;-108.97;0
-2.2;-9.8;-8.7;-84.15;148.05;-96.38;0
-0.72;-8.85;-9.65;-63.52;123.56;-86.55;0
-0.68;-9.08;-10.93;-47.78;95.14;-82.75;0
-0.71;-8.82;-11.7;-38.61;59.21;-86.82;0
-0.14;-7.74;-12.28;-31.34;33.7;-91.72;0
0.42;-7.04;-12.28;-24.74;6.37;-92.88;0
1.98;-7.36;-12.92;-22.44;-3.98;-94.63;0
2.23;-8.64;-13.21;-26.86;0.72;-97.98;0
1.2;-9.88;-13.46;-42.73;11.87;-97.52;0
0.32;-9.87;-13.49;-66.21;40.22;-91.69;0
-0.43;-9.39;-12.91;-87.44;61.91;-87.79;0
-1.05;-10.41;-12.41;-102.42;66.14;-86.82;0
-1.64;-11.98;-11.54;-107.82;65.22;-84.88;0
-1.93;-12.83;-10.77;-100.99;66.05;-84.13;0
-2.95;-13.08;-8.49;-81.59;71.19;-86.38;0
-5.08;-13.76;-7.3;-41.26;65.93;-78.92;0
-5.08;-12.79;-9.89;-22.99;56.02;-65.2;0
-5.32;-11.94;-11.05;-24.08;60.17;-50.14;0
-5.43;-11.74;-10.36;-19.95;66.82;-34.05;0
-5.92;-11.65;-9.59;-5.18;73.17;-14.52;0
-6.78;-11.42;-9.43;13.64;69.76;4.8;0
-7.4;-11.35;-8.94;32.76;67.56;24.76;0
-7.55;-10.7;-9.31;54.86;53.62;42.94;0
-9.11;-10.66;-9.18;73.37;40.11;69.24;0
-10.03;-12.76;-8.72;87.93;35.44;101.73;0
-9.5;-16.14;-9.5;90.16;0.25;137.84;0
-5.01;-17.33;-9.75;103.31;-74.42;164.87;0
-0.24;-18.32;-10.15;122.54;-132.55;184.53;0
3.76;-19.55;-11.9;134.21;-114.97;188.65;0
7.13;-18.08;-12.39;139.53;-45.03;181.38;0
8.63;-15.75;-12.62;140.66;29.75;179.96;0
7.79;-15.84;-13.21;138.15;76.69;183.89;0
6.27;-15.95;-14.47;128.6;79.62;185.25;0
4.19;-15.71;-14.95;108.25;52.77;181.6;0
3.24;-12.89;-14.18;68.47;59.67;172.85;0
2.58;-12.98;-14.3;31.36;47.53;162.12;0
1.84;-13.33;-12.01;17.85;42.07;157.1;0
1.4;-12.36;-10.09;20.6;16.59;155.05;0
2.06;-11.24;-10.97;23.11;-24.46;149.92;0
2.74;-10.23;-12.38;18.7;-63.99;140.34;0
3.31;-8.89;-13.26;11.37;-101.78;129.04;0
4.19;-7.31;-13.3;4.47;-132.53;113.89;0
4.99;-5.72;-13.14;-3.12;-156.16;95.22;0
5.94;-4.47;-13.2;-11.13;-161.65;72.5;0
7.11;-2.92;-13.17;-18.03;-146.48;51.93;0
7.21;-1.71;-12.34;-17.82;-118.35;35.93;0
6.91;-0.84;-10.99;-7.9;-88.6;16.31;0
5.64;-0.92;-8.58;7.03;-78.31;-4.9;0
2.83;-0.68;-6.8;17.7;-108.67;-18.49;0
1.78;-0.75;-5.64;20.95;-174.88;-34.63;0
0.36;-3.38;-5.17;25.01;-220.99;-58.4;0
-1.76;-5.55;-5.54;41.09;-224.61;-65.33;0
-4.52;-8.8;-6.15;59.96;-189.82;-54.71;0
-6.71;-13.75;-8;50.09;-91.36;-39.35;0
-9.04;-16.96;-9.62;3.36;28.9;-13.39;0
-6.98;-17.77;-8.33;-47.53;99.25;3.98;0
-6.4;-15.34;-6.71;-67.5;100.5;9.19;0
-7.39;-11.31;-7.44;-65.68;116.73;21.85;0
-7.36;-7.88;-9.92;-58.5;135.41;36.42;0
-2.23;-5.98;-13.8;-50.61;113.86;41.09;0
4.82;-5.84;-15.28;-57.26;79.03;33.69;0
11.15;-18.97;-16;-84.54;7.9;-10.85;0
12.41;-19.55;-8.07;-83.63;1.73;-87.21;0
-1.31;-19.55;-10.08;-38.95;-57.97;-73.81;0
-2.79;-10.49;-8.63;0.01;-35.98;-29.47;0
2.38;-2.57;-10.29;0.38;-67.96;11.61;0
7.73;0.82;-12.91;2.49;-88.45;23.01;0
12.22;2.93;-14.42;2.85;-29.68;5.15;0
15.47;-0.5;-15.82;-13.92;34.07;-30.87;0
15.44;-6.42;-17.95;-44.55;77.58;-69.13;0
14.78;-12.98;-18.46;-76.82;104.33;-124.72;0
10.38;-15.07;-17.56;-113.13;110.12;-169.75;0
1.56;-16.27;-14.8;-142.11;103.09;-184.79;0
-8.59;-16.94;-12.48;-140.89;157.12;-161.95;0
