label;acc_x_avg;acc_y_avg;acc_z_avg;gyro_x_avg;gyro_y_avg;gyro_z_avg;acc_x_max;acc_y_max;acc_z_max;gyro_x_max;gyro_y_max;gyro_z_max;acc_x_min;acc_y_min;acc_z_min;gyro_x_min;gyro_y_min;gyro_z_min;acc_x_stdev;acc_y_stdev;acc_z_stdev;gyro_x_stdev;gyro_y_stdev;gyro_z_stdev
2;1.91;-11.01;-0.45;5.28;22.35;-92.77;28.38;0.68;4.19;46.92;93.72;-19.48;-11.8;-26.14;-5.56;-29.75;-249.99;-222.21;8.33;4.76;2.15;23.82;75.21;63.83
2;5.76;-9.6;-1.52;-25.25;-32.44;79.45;18.43;-1.4;4.99;59.67;148.61;380.21;-7.27;-26.83;-14.37;-107.72;-172.73;-330.5;6.73;6.13;4.45;44.53;89.72;211.71
2;1.88;-11.56;-0.38;7.05;29.11;-95.67;19.65;-1.18;9.83;44.75;93.06;-16.82;-8.47;-24.62;-7.22;-27.63;-174.87;-245.47;7.91;5.22;3.05;24;59.02;65.9
2;6.73;-8.95;-0.53;-39.51;-30.96;94.43;14.97;-1.58;7.02;40.58;221.98;386.8;-4.07;-27.65;-16.78;-144.48;-178.11;-342.04;5.82;5.78;5.17;51.71;109.08;219.17
2;2.36;-11.03;-0.49;14.29;26.08;-99.75;20.98;0.5;10.68;62.38;124.28;-20.09;-14.47;-20.14;-5.03;-23.37;-141.58;-239.12;9.46;5.55;3.18;32.55;74.98;79.86
2;5.68;-9.76;-0.09;-47.36;-28.89;87.23;15.31;0.34;7.21;3.12;166;396.08;-2.84;-29.74;-8.76;-156.52;-189.47;-332.01;5.16;7.06;3.57;46.24;89.95;231.61
2;2.34;-11.41;-1.39;11.06;30.73;-109.24;33.13;3.83;2.33;57.58;141.34;-29.28;-14.84;-23.96;-5.25;-31.97;-194.33;-261;12.11;6.28;1.52;29.62;75.03;74.16
2;6.34;-9.83;-0.38;-47.08;-23.97;101.38;19.12;-4.74;4.31;18.06;103.58;391.52;-3.79;-30.77;-13.73;-132.18;-201.02;-408.93;4.8;5;4;47.01;95.52;238.29
2;2.93;-11.95;-0.51;11.2;39.4;-131.56;37.84;10.9;4.89;52.68;327.76;-29.98;-14.18;-27.61;-3.74;-23.11;-178.2;-288.32;13.03;8.09;2.88;26.35;122.95;88.16
2;7.03;-9.12;-0.41;-41.01;-37.94;119.68;21.44;0.02;6.22;37.06;198.97;442.63;-11.06;-27.99;-15.16;-145.27;-192.95;-389.03;8.32;6.84;4.72;46.8;92.88;253.76
2;1.85;-11.32;-0.11;15.67;1.25;-113.91;34.46;4.53;8.64;67.05;137.24;-19.6;-12.79;-22.29;-3.08;-27.92;-193.88;-284.24;12.42;6.7;3.43;33.4;92.83;92.4
2;7.19;-10.69;-0.94;-40.92;1.58;105.03;25.72;-1.12;6.86;9.11;112.21;448.55;-15.58;-31.93;-16.51;-130.56;-188.39;-409.61;8.81;7.34;5.3;41.83;96.04;261.5
2;1.5;-11.22;-0.53;13.57;17.99;-113.88;40.26;10.37;5.19;62.91;150.26;-12.78;-15.93;-27.76;-4.12;-26.84;-260.95;-269.46;14.48;8.65;2.86;30.43;95.57;81.93
2;6.43;-10.52;-0.81;-35.79;-25.46;99.53;22.88;-1.68;7.18;13.34;170.6;420.04;-7.21;-33.83;-15.04;-141.83;-218.07;-369.29;8.13;6.82;5.02;47.08;111.99;243.25
2;1.54;-11.47;-0.83;6.32;33.36;-116.1;37.77;12.99;2.94;48.48;158.23;-19.88;-21.65;-28.57;-3.35;-35.83;-229.66;-302.92;14.21;9.01;1.75;30.75;86.95;82.36
2;6.29;-10.21;-0.1;-35.73;-13.73;101.25;18.74;-1.17;6.27;25.87;159.88;435;-8.15;-32.01;-8.11;-137.58;-239.44;-357.36;6.71;7.02;3.39;42.54;106.38;245.96
2;1.3;-11.19;-1.41;17.13;25.91;-122.95;41.11;13.62;3.63;58.59;207.36;-13.92;-20.41;-28.48;-6.14;-22.61;-215.04;-287.44;14.45;8.95;1.94;24.86;89.66;84.09
2;6.58;-10.6;-0.5;-37.88;-38.93;102.55;22.3;0.07;6;34.39;207.7;440.73;-9.87;-36.05;-15.15;-151.18;-216.81;-328.01;9.24;7.95;4.93;49.45;108.69;245.44
2;0.58;-11.55;-1.03;3.92;29.67;-124.16;37.06;12.79;2.36;49.9;140.03;-37.81;-20.3;-29.47;-4.93;-37.33;-240.16;-279.86;14.41;9.79;1.82;27.05;94.03;75.54
2;6.72;-10.27;-0.42;-38.86;-34.48;97.89;23.09;-1.93;5.55;16.05;134.45;434.39;-7.49;-29.6;-14.97;-141.54;-236.97;-380.88;8.72;6.79;5.01;49.55;110.92;253.88
2;1.18;-11.93;-0.8;0.08;22.71;-127.31;37.32;8.27;4.91;53.95;169.17;-18.2;-20.55;-28.09;-6.51;-37.39;-220.25;-260.73;14.25;8.26;2.58;27.64;99.35;82.83
2;6.61;-9.39;0.52;-50.05;-22.14;112.52;16.99;-1.71;6.14;0.13;200.82;449.07;-3.37;-30.93;-7.12;-142.26;-163.03;-346.64;6.16;6.82;3.67;43.97;93.2;254.21
2;1.26;-12.8;-1.27;1.43;28.56;-136.71;37.34;7.35;2.83;44.42;151.69;-42.27;-21.03;-28.39;-8.92;-45.24;-230.62;-282.79;14.67;8.21;2.42;24.11;93.35;79.91
2;6.27;-9.29;-0.03;-46.28;-28.67;114.47;14.61;-1.13;7.27;16.71;144.8;455.56;-3.55;-29.35;-9.39;-131.22;-201.41;-319.1;6.2;6.89;3.41;43.03;99.05;252.17
2;1.12;-12.31;-1.12;6.15;30.44;-128.59;40.12;5.73;5.85;51.54;128.92;-37.29;-20.94;-26.83;-5.35;-42.51;-245.31;-275.66;14.9;7.7;2.62;29.92;94.19;84.61
2;6.83;-9.94;0.18;-41.85;-27.01;112.55;18.6;-0.72;7.17;19.41;109.17;461.22;-8.08;-30.21;-8.94;-145.99;-208.98;-373.6;7.31;7.55;3.91;48.55;101;258.4
2;0.91;-12.24;-1.15;1.69;14.13;-132.2;40.42;14.82;4.37;49.39;154.04;-52.77;-19.63;-29.01;-9.27;-52.95;-234.67;-269.47;15.19;8.91;2.8;28.85;95.07;75.82
2;6.71;-9.59;-0.27;-34.01;-13.86;109.58;20.22;0.64;8.6;24.27;143.79;487.47;-3.84;-29.93;-11.26;-117.74;-173.56;-306.62;6.9;7.76;4.83;44.31;89.25;270.69
2;1;-12.77;-1.04;1.14;30.52;-130.59;33.84;5.95;2.94;48.91;174.72;-44.71;-22.2;-25.62;-4.41;-36.46;-251.09;-284.79;14.66;7.59;2.11;27.38;100.82;75.85
2;7.1;-9.2;-0.06;-36.67;-23.59;113.35;15.31;-0.99;6.34;23.58;61.25;445.01;-5.29;-32.36;-6.59;-114.92;-133.93;-327.89;5.26;7.23;3.27;37.14;62.89;248.97
2;1.05;-12.36;-1.31;2.6;30.54;-131.05;39.82;9.29;3.35;45.15;119.09;-50.07;-17.45;-25.91;-8.5;-45.61;-261.33;-276.14;14.16;8;2.55;29.36;94.16;78.29
2;8.02;-9.3;-0.28;-31.9;-31.74;124.98;17.32;-0.24;5.74;21.01;95.91;447.74;-1.63;-28.33;-10.62;-107.54;-201.21;-352.63;6.21;6.37;4.33;35.74;79.81;250.74
2;0.65;-12.64;-1.11;1.99;33.9;-129.34;39.43;6.94;3.91;47.12;155.92;-48.8;-18.56;-26.14;-6.99;-37.65;-242.43;-286.89;14.26;7.33;2.35;29.82;93.37;83.65
2;7.7;-9.13;-0.26;-34.27;-19.78;116.78;18.9;1.87;9.15;16.44;173.85;450.63;-4.81;-31.46;-6.86;-119.07;-164.03;-301.21;6.68;7.67;3.6;38.38;87.64;249.45
2;-0.4;-13.69;-1.69;7.84;32.4;-143.05;39.01;7.59;7.13;45.74;139.45;-49.22;-26.69;-28.55;-8.51;-40.69;-224.52;-257.52;15.56;7.69;2.98;24.08;93.58;67.71
2;6.44;-9.2;-0.01;-30.21;-28.3;114.01;21.16;1.99;5.38;29.93;137.99;460.14;-10.98;-31.62;-8.93;-83.6;-209.42;-299.57;7.82;8.28;3.25;34.28;89.93;264.86
2;1.19;-12.16;-1.54;2.91;38.64;-129.31;38.71;18.47;4.97;46.21;179.57;-39.2;-24.49;-26.88;-11.36;-43.44;-278.79;-288.21;15.89;9.44;2.98;27.04;104.97;76.3
2;7.3;-8.92;-0.3;-32.72;-31.77;116.21;16.51;-1.65;4.11;32.6;139.64;435.33;-3.76;-29.22;-8.75;-108.49;-192.71;-279.05;5.83;6.47;3.43;38.76;70.35;242.76
2;0.53;-12.89;-1.61;7.67;36.78;-130.43;38.32;10.08;4.51;52.99;147.53;-40.06;-22.37;-31.51;-8.91;-35.39;-220.01;-258.08;14.59;8.6;2.72;28.33;93.5;72.96
2;8.49;-9.86;-0.07;-32.89;-38.92;108.3;26.25;-2.02;6.36;45.46;84.1;433.45;-5.09;-24.46;-9.15;-134.04;-184.95;-397.01;8.08;5.05;4.21;51.5;78.06;250.3
2;0.83;-12.46;-1.13;5.88;26.84;-123.17;30.59;4.35;3.16;54.53;126.56;-21.85;-18.37;-27.78;-4.36;-32.68;-147.08;-274.13;13.61;7.44;2.38;26.42;74.65;84.31
2;6.68;-9.41;0.35;-53.15;-28.94;101.93;17.58;-0.45;6.27;15.89;150.87;459.51;-1.83;-35.76;-13.17;-160.7;-187.37;-340.15;6.41;7.58;4.19;51.5;111.55;262.74
2;1.37;-12.36;-1.16;8.21;20.48;-133.3;38.66;11.2;3.42;50.41;131.96;-46.14;-18.73;-28.33;-5.52;-30.05;-227.79;-293.9;14.59;8.91;1.75;25.37;94.2;75.13
2;8.36;-9.63;-0.12;-27.93;-26.44;119.7;23.56;-1.17;6.57;45.2;99.98;450.8;-1.45;-31.04;-13.49;-109.8;-159.15;-386.55;7.61;6.57;5.66;48.87;75.08;257.99
2;0.51;-11.89;-0.94;1.1;21.09;-119.65;31.85;3;3.72;49.04;113.05;-15.3;-19.63;-24.84;-5.29;-35.07;-185.65;-258.15;13.08;7.36;1.94;27.33;75.97;89.5
2;7.77;-10.63;-0.4;-36.7;-31.02;112.44;25.74;0.09;7.17;37.71;160.79;462.39;-9.5;-33.43;-19.58;-136.87;-269.64;-365.77;8.97;7.65;6.48;48.47;134.3;262.78
2;0.67;-12.21;-1.07;-6.15;24.8;-129.27;33.44;12.79;3.58;54.2;157.75;-33.15;-22.54;-25.35;-6.38;-50.63;-268.28;-267.4;14.91;8.92;3.71;29.91;100.91;87.09
2;7.18;-10.02;0.61;-47.64;-16.84;117.51;26.84;-0.52;10.05;39.1;155.15;463.44;-5.22;-32.6;-11.13;-139.12;-314.89;-373.16;7.97;8.29;3.98;49.33;120.19;261.15
2;0.15;-12.44;-1.1;14.46;19.71;-134.1;38.37;16.33;5.64;78.96;140.97;-46.29;-25.06;-26.6;-6.1;-47.47;-236.24;-259.29;16.09;9.14;3;31.53;100.54;78.54
2;7.4;-8.58;0.01;-45.26;-22.35;109.83;20.34;3.07;8.12;22.16;166.15;459.76;-3.2;-29.72;-11.6;-123.94;-244.11;-287.2;6.63;7.64;4.02;46.96;110.02;256.75
2;0.28;-13.27;-1.32;5.86;19.46;-137.8;34.54;8.9;5.6;58.62;153.67;-35.37;-26.61;-28.34;-9.01;-32.65;-224.81;-259.15;15.37;8.19;2.94;25.22;111.98;75.48
2;7.77;-9.95;-0.29;-22.45;-22.74;129.14;21.89;1.59;6.49;39.67;127.12;459.75;-14.3;-35.34;-15.03;-107;-113.34;-399.65;7.08;7.8;5.3;40.41;65.92;266.33
2;0.69;-11.84;-1.28;0.17;29.52;-125.65;40.48;21.14;4.15;70.76;170.38;-24.71;-22.58;-26.12;-10.16;-53.11;-300.76;-264.13;15.43;10.39;3.29;26.43;100.68;84.64
2;7.37;-9.45;1.06;-49.67;-17.95;123.37;22.6;0.18;14.73;32.12;101.9;442.35;-12.47;-36.09;-6.8;-161.11;-171.87;-370.56;8.58;8.11;3.75;57.38;81.33;252.46
2;0.31;-12.62;-1.11;16.14;0.75;-143.09;38.91;18.11;11.1;71.13;121.75;-49.4;-22.6;-27.39;-11.8;-46.7;-223.41;-270.93;15.41;9.65;3.68;26.07;93.15;84.38
2;6.64;-9.37;0.21;-56.92;-14.7;119.58;18.56;1.41;5.1;18.08;112.8;481.47;-3.25;-32.34;-9.3;-173.78;-294.2;-304.59;6.2;7.67;3.44;53.9;117.04;262.92
2;1.61;-12.47;-1.06;13.57;21.38;-142.04;41.27;11.61;3.81;50.13;98.71;-58.9;-21.66;-27.86;-5.37;-26.45;-184.72;-306.02;15.71;8.72;2.19;24.23;82.6;75.59
2;7.55;-9.55;-0.03;-45.63;-21.63;111.59;22.58;2.99;6.54;19.71;152;457.07;-4.62;-27.34;-9.31;-157.18;-200.73;-389.44;7.75;8.28;3.89;49.99;101.73;260.74
2;0.95;-12.38;-1.26;9.75;25.95;-129.13;37.16;6.06;3.25;53.19;122.71;-40.53;-17.75;-29.21;-5.15;-29.82;-157.7;-268.13;14.43;8.19;2.2;25.89;77.68;86.41
2;7.51;-10.37;-0.06;-34.33;-34.39;118.67;27.62;-0.76;7.42;24.2;131.12;476.61;-5.19;-32.05;-12.33;-133.51;-209.71;-390.79;8.33;7.65;4.98;47.91;101.66;269.65
2;1.1;-12.32;-1.13;-2.47;21;-134.9;39.02;19.2;6.67;47.15;143.87;-46.08;-22.43;-29.82;-7.86;-50.56;-222.55;-266.37;15.45;9.88;3.5;28.01;93.06;83.03
2;7.94;-9.72;-0.42;-28.27;-32.02;112.2;22.48;-0.32;7.87;36.58;127.81;487.82;-4.64;-30.39;-17.92;-120.4;-177.63;-348.62;7.88;7.33;5.89;48.54;79.97;272.67
2;0.6;-12.97;-1.65;-14.7;64.27;-133.42;34.87;10.47;5.25;23.53;181.55;-38.51;-21.91;-30.31;-6.44;-50.68;-256.47;-256.83;14.98;8.6;3.6;21.09;109.4;80.84
2;7.69;-9.83;0.05;-10.38;-32.63;135.45;23.54;-1.38;6.6;43.15;260.45;478.74;-16.48;-32.4;-7.94;-61.86;-143.83;-365.99;8.67;7.46;4.15;34.4;97.97;264.44
2;1.11;-12.49;-1.12;6.34;13.81;-143.57;40.8;18.06;5.93;44.36;197.97;-45.01;-22.7;-29.18;-9.77;-43.9;-284.83;-276.78;15.9;9.59;3.12;23.82;107.96;89.99
2;7.26;-8.93;0.23;-45.2;-21.12;119.96;19.46;1.56;7.76;39.6;216.47;459.69;-4.7;-24.36;-10.48;-159.15;-205.08;-324.65;6.98;6.89;4.18;54.84;114.84;257.9
2;0.53;-13.45;-1.4;11.61;15.35;-143.19;38.13;8.45;4.75;61.58;152.12;-35.95;-25.42;-29.1;-5.36;-21.95;-206.13;-278.68;16.25;8.97;2.73;26.49;93.95;85.21
2;8.26;-9.31;-0.08;-30.48;-26.68;122.95;18.65;0.76;6.08;34.66;71.1;498.75;-2.04;-27.99;-11.72;-113.75;-195.74;-354.21;5.29;7.35;3.9;45.36;75.95;276.35
2;0.81;-12.61;-1.61;-4.87;38.48;-140.31;37.46;10.73;4.22;53.32;244.08;-33.4;-27.86;-30.78;-6.36;-41.7;-192.08;-257.49;16.57;9.26;2.87;25.61;116.56;82.23
2;8.08;-9.98;-0.55;-17.5;-20.74;125.71;23.26;0.66;4.88;38.57;256.45;476.88;-7.08;-31.92;-11.14;-99.28;-179.56;-395.76;7.54;6.62;3.29;34.58;92.89;261.16
2;0.58;-12.83;-0.99;5.79;9.71;-140.49;35.85;14.48;4.98;48.95;125.51;-47.82;-21.09;-28.97;-8.4;-41.03;-241.56;-291.07;15.41;8.91;2.98;23.41;86.68;86.31
2;7.78;-8.79;-0.09;-47.11;-10.75;121.53;21.65;3.42;6.01;28.04;135.9;502.08;-3.41;-28.46;-10.51;-162.9;-193.66;-312.29;7.58;7.79;4.22;55.72;90;277.13
2;0.74;-13.43;-1.34;4.57;22.71;-137.35;33.93;7.16;4.65;56.31;193.53;-30.67;-23.07;-31.02;-8.14;-31.49;-213.4;-284.23;15.16;8.98;2.82;25.1;103.25;81.9
2;8.33;-8.91;0.34;-37.03;-8.83;126.65;22.35;0.7;5.94;44.56;192.43;451.75;-9.17;-23.42;-7.7;-143.83;-159.08;-350.99;8.29;5.58;3.92;51.07;81.26;251.16
2;0.17;-13.04;-1.29;15.5;13.98;-132.09;38.69;4.67;4.46;73.84;171.09;-44.13;-18.99;-30.94;-5.88;-31.84;-205.71;-269.45;15.18;8.03;2.63;29.56;91.51;82.93
2;6.95;-10.38;0.27;-39.73;-16.78;115.89;17.34;0.49;7.7;33.58;196.34;479.26;-6.79;-31.22;-10;-129.63;-197.35;-372.68;6.75;7.56;4.06;44.34;97.48;271.93
2;1.32;-12.12;-1.86;6.77;20.85;-138.81;39.77;18.13;4.2;63.57;197.7;-45.79;-24.08;-30.45;-8.5;-31.81;-198.43;-279.33;15.85;9.97;3.13;28.71;102.66;81.49
2;7.33;-9.61;0.67;-50.19;-20.33;120.06;29.62;3.12;8.37;22.22;245.16;441.03;-12.36;-29.71;-12.01;-146.88;-227.51;-370.34;8.2;7.99;4.81;58.03;141.76;257.35
2;0.47;-12.56;-1.14;4.79;13.41;-134.62;41.23;10.99;5.93;52.02;224.82;-51.27;-24.54;-28.27;-6.17;-37.43;-308.66;-255.21;16.68;8.64;3.42;26.98;114.23;77.07
2;7.85;-9.97;-0.28;-30.95;-15.3;125.34;19.06;0.97;6.26;24.16;238.16;458.99;-6.83;-31.93;-7.83;-96.92;-210.1;-369.59;7.27;7.16;3.8;29.15;113.09;255.3
2;0.43;-12.51;-1.58;5.75;11.59;-133.26;40.03;16.66;7.08;55.69;160.44;-43.62;-22.77;-29.95;-10.67;-55.93;-228.75;-285.96;15.79;9.92;3.65;30.19;88.71;83.45
2;7.76;-10.22;-0.2;-32.98;-14.33;124.34;18.05;0.91;6.9;56.4;224.83;462.16;-7;-33.46;-13.18;-146.04;-149.97;-365.44;7.59;7.56;4.74;52.7;96.37;260.08
2;-0.08;-13.25;-1.2;0.07;17.6;-140.61;37.42;15.8;5.07;51.66;173.45;-15.86;-31.37;-29.39;-7.45;-56.25;-246.23;-282.98;17.38;9.83;3.39;29.68;105.04;97.9
2;7.77;-8.94;-0.19;-30.65;-7.27;131.17;19.2;5.19;9.39;35.6;154.32;499.55;-10.04;-32.37;-8.04;-141.07;-120.22;-348.11;7.84;9.08;4.31;47.98;80.45;281.59
2;0.22;-12.62;-1.5;6.07;17.68;-137.14;38.74;15.76;5.18;48.77;119.4;-31.27;-25.42;-27.53;-11.48;-64.04;-259.21;-269.01;15.9;9.42;3.26;28.16;91.93;86.02
2;7.68;-9.3;-0.03;-41.79;-23.4;125.83;21.47;2.33;10.51;47.27;130.25;482.76;-11.55;-34.88;-11.62;-159.93;-176.15;-352.37;8.59;8.89;4.92;57.7;81.63;273.51
2;0.13;-13.01;-1.52;4.11;23.66;-146.82;39.63;21.19;7.77;56.1;196.48;-39.33;-31.15;-30.05;-10.49;-67.35;-237.88;-273.21;17.15;10.75;4.06;34.23;106.51;88.22
2;7.36;-9.05;0.17;-37.99;-21.64;101.33;19.3;15.3;9.83;56.21;154.5;501.58;-16.06;-34.91;-10.66;-123.07;-232.41;-336;8.62;9.1;3.81;43.03;100.08;291.27
2;-0.09;-13.61;-2.38;13.36;28.76;-141.34;43.48;19.11;1.96;61.46;127.82;-35.12;-23.13;-30.59;-10.25;-37.44;-181.32;-273.32;16.92;9.43;2.9;28.26;73.59;73.82
2;9.1;-9.23;-0.23;-14.84;-22.48;155.92;25.13;3.21;5.56;45.22;153.71;479.99;-11.16;-34.57;-10.17;-90.66;-244.94;-402.71;8.08;8.93;4.07;41.83;117.84;278.13
2;0.12;-12.94;-1.69;-6.85;36.9;-136.11;43.71;23.21;8.88;37.54;185.93;-31.76;-29.7;-30.92;-16.64;-70.92;-277.54;-276.72;17.96;11.69;4.86;27.39;107.38;90.37
2;7.29;-8.98;-0.04;-38.51;-31.65;118.93;20.47;2.17;5.08;30.09;197.84;480.21;-6.77;-24.83;-8.37;-127.33;-175.26;-374.34;7.81;7.17;3.71;44.16;88.09;276.98
2;-0.22;-13.53;-1.39;0.86;26.12;-149.91;39.37;13.85;10.53;48.37;177.31;-33.73;-29.28;-30.82;-9.49;-56.62;-208.08;-305.24;16.98;9.76;4.6;24.35;100.24;94.54
2;7.37;-9.32;0.16;-41.94;-27.88;112.59;18.93;0.99;5.62;43.51;156.99;504.44;-4.61;-32.91;-13.31;-157.39;-198.51;-320.35;7.14;8.39;4.19;54.52;100.27;286.34
2;1.02;-12.81;-1.37;1.32;36.38;-144.75;36.26;12.64;4.13;51.71;244.2;-40.28;-27.13;-33.08;-6.78;-36.76;-173;-302.11;17.17;10.39;2.77;26.83;103.14;85.9
2;8.22;-9.4;0.08;-36.04;-32.42;132.7;19.49;2.13;6.63;61.87;229.23;476.81;-9.85;-33.39;-9.59;-148.09;-173.05;-369.93;8.01;7.39;4.29;53.86;89.05;269.64
2;0.32;-12.62;-1.51;-6.88;29.34;-135.31;38.94;19.69;4.74;44.16;225.17;-21.52;-28.77;-34.71;-9.48;-72.69;-239.33;-299.71;18.25;12.17;3.28;29.81;115.91;86.69
2;6.62;-10.36;-0.33;-20.57;-13.71;108.99;19.84;-0.43;5.32;31.3;317.69;483.56;-9.37;-30.03;-9.41;-92.94;-197.31;-359.24;6.99;7.39;3.67;33.18;123.27;272.63
2;0.59;-12.81;-1.25;7.62;31.01;-157.82;37.68;13.96;4.43;43.96;168.55;-39.89;-25.83;-32.36;-6.84;-32.94;-178.63;-306.46;16.67;10.27;2.73;20.75;80.92;93.57
2;8.69;-9.02;-0.14;-49.81;-40.03;150.09;23.33;4.73;6.2;9.86;142.75;502.6;-5.3;-28.56;-12.88;-150.65;-233.25;-359.35;8.76;7.36;4.34;48.23;104.47;273.93
2;0.49;-13.17;-1.43;2.66;28.27;-139.14;37.99;9.23;7.53;66.1;168.57;-21.85;-24.39;-31.2;-6.85;-41.28;-204.37;-283.33;16.28;9.23;3.54;32.49;91.04;94.96
2;7.22;-10.56;0.04;-37.01;-22.31;115.13;20.46;-2.26;6.11;33.37;129.32;492.21;-10.26;-32.49;-14.25;-136.67;-169.67;-353.32;8.03;7.11;4.26;48.15;76.55;280.4
2;0.54;-12.46;-1.36;8.45;20.19;-155.05;37.21;19.46;5.64;61.88;160.3;-48.45;-25.25;-29.17;-6.91;-46.55;-209.83;-309.06;16.27;10.31;2.96;28.11;89.19;92.29
2;8.82;-9.2;-0.29;-43.7;-31.22;123.34;32.88;3.37;6.51;21.59;137.85;472.3;-3.75;-23.3;-13.05;-180.69;-294.17;-361.53;9.4;7.41;4.89;63.71;114.44;270.2
2;0.57;-13.77;-1.38;-0.85;45.72;-147.25;27.81;-2.22;6.48;53.05;253.73;-30.78;-27.54;-30.48;-6.28;-41.34;-115.33;-284.05;15.57;8.01;3.34;24.7;102.21;90
2;8.48;-9.52;0.2;-23.5;-38.45;137.44;19.79;-0.62;6.95;37.2;173.17;502.97;-10.84;-34.34;-14.13;-91.82;-123.96;-377.93;7.56;7.73;4.98;37.46;64.24;280.58
2;-0.01;-12.71;-1.95;-1.11;34.73;-147.13;41.84;20.35;6.3;45.98;163.68;-30.57;-28.21;-33.43;-8.29;-47.62;-241.15;-286.05;17.31;10.77;3.6;25.51;96.54;92.51
2;8.47;-9.23;0.63;-34.86;-18.33;135.35;20.01;3.2;7.71;42.13;89.06;502.03;-7;-32.77;-10.63;-142.64;-119.25;-365.31;7.7;8.53;4.15;50.25;63.12;283.03
2;0.44;-12.86;-1.58;10.73;10.96;-143.44;39.57;19.3;7.14;62.64;236.4;-20.08;-34.67;-31.26;-5.76;-35.32;-262.45;-317.67;18.33;11.88;3.19;24.83;121.43;92.51
2;7.31;-10.05;-0.25;-27.91;-18.34;110.08;18.71;-1.15;5.19;27.89;276.8;483.52;-7.33;-34.71;-10.94;-78.33;-195.23;-351.6;7.21;8.13;3.53;29.64;116.83;273.43
2;1.37;-12.49;-1.43;8.93;30.43;-146.56;40.09;18.2;4.17;60.38;172.21;-18.39;-25.93;-31.3;-5.79;-33.55;-225.05;-304.49;16.41;10.79;2.79;27.72;97.6;95.73
2;9.08;-9.12;-0.4;-39.56;-22.83;134.89;27.14;3.29;6.19;6.38;156.65;489.78;-3.83;-29.06;-11.26;-128.15;-204.58;-431.73;7.67;7.63;4.31;41;87.64;275.12
2;0.43;-12.84;-1.15;13.73;14.68;-135.48;39.95;14.36;7.69;65.25;155.98;-20.96;-27.93;-30.23;-7.04;-30.69;-209.82;-287.34;17.27;10.12;3.72;33.05;94.49;102.12
2;7.24;-9.94;0;-40.12;-25.1;124.11;19.89;3.61;6.09;36.65;213.67;502.68;-10.18;-30.79;-12;-128.56;-205.88;-327.04;8.69;9.14;4.48;46.16;120.08;290.33
2;0.61;-12.82;-1.73;-1.98;33.8;-148.26;40.26;19.13;6.53;28.35;229;-33.2;-31.07;-30;-7.7;-45.44;-241.22;-311.76;18.32;10.87;3.44;21.35;116.14;92.58
2;7.98;-7.7;0.6;-33.97;-21.35;151.28;23.25;4.29;5.59;50.84;199.33;502.37;-13.63;-17.5;-13.21;-160.74;-153.38;-257.92;9.16;7.74;4.15;57.31;80.28;272.93
2;0.37;-13.63;-2.09;-1.74;17.28;-151.7;32.59;17.32;3.97;53.16;273.27;13.93;-37.4;-32.86;-15.33;-81.49;-181.29;-330.34;19.01;11.86;4.29;33.14;120.66;112.28
2;7.23;-9.78;-0.3;-35.9;-12.47;102.89;21.26;1.07;8.54;50.05;169.19;487.89;-7.31;-32.29;-14.28;-116.46;-192.09;-350.12;8.73;7.92;3.89;42.05;99.26;282.08
2;0.19;-12.43;-1.49;14.42;36.73;-136.87;41.13;16.64;4.57;55.63;177.09;-36.61;-29.2;-29.53;-5.74;-35.8;-224.6;-286.1;17.44;10.16;2.44;23.51;96.9;82.74
2;8.68;-9.13;-0.61;-29.93;-49.94;99.14;35.32;6.62;4.45;38.37;189.33;501.4;-14.71;-30.53;-10.61;-111.22;-241.56;-294;9.63;8.88;3.52;40.78;100.87;282.22
2;-2.67;-15.23;-2.21;0.28;73.16;-152.83;37.94;9.48;5.69;46.46;257.28;-13.25;-40.94;-31.47;-7.36;-47.81;-61.56;-292.82;18.86;9.09;3.4;25.22;83.16;91.72
2;7.92;-8.94;0.64;-29.14;-34.75;152.26;19.21;5.65;5.17;56.7;37.16;503.24;-12.95;-34.41;-9.3;-120.23;-163.34;-346.94;7.46;9.11;4.16;46.06;51.28;291.04
2;0.42;-12.83;-1.57;6.11;14.29;-150.51;41.5;27.65;5.9;59.19;159.95;-30.36;-32.94;-29.98;-9.18;-59.64;-280.04;-296.3;19.05;12.29;3.98;32.91;115.07;99.34
2;6.8;-9.24;0.45;-54.69;-4.34;115.83;24.03;3.73;6.59;25.32;142.88;485.26;-10.15;-30.28;-5.95;-176.2;-168.7;-322.59;9.29;7.83;3.01;58.06;104.05;273.63
2;0.02;-13.42;-1.74;13.04;26.37;-152.62;40.65;16.47;3.35;51.42;143.54;-44.34;-30.12;-30.5;-6.97;-26.02;-241.75;-309.28;18.01;10.28;2.87;21.85;95.39;86.83
2;7.18;-9.03;-0.01;-26.71;-32;112.87;16.44;2.67;5.54;58.19;143.37;499.97;-10.71;-35.34;-8.75;-109.84;-216.28;-346.3;7.74;8.32;3.52;45.49;79.95;284.03
2;-0.28;-13.02;-2.54;-1.73;59.71;-135.9;39.74;22.34;4.55;59.41;142.89;-13.62;-30.35;-30.24;-7.23;-55.67;-218.87;-276.45;18.19;11.5;3.22;31.38;84.01;87.46
2;7.4;-9.73;0.95;-41.83;-31.18;123.59;18.83;-0.08;5;59.74;119.99;471.96;-11.02;-35.47;-7.85;-127.63;-169.44;-335.95;7.96;8.51;3.12;43.41;77.73;267.98
2;0;-12.8;-1.79;15.98;18.68;-144.54;40.93;21.11;2.94;60.51;144.63;-32.67;-31.66;-29.78;-5.57;-28.82;-246.22;-287.88;18.38;11.36;2.31;23.96;100.86;87.94
2;7.71;-9.64;-0.15;-29.01;-32.1;123.62;20.15;4;4.31;38.03;167.19;494.43;-10.03;-33.38;-9.99;-120.35;-133.06;-362.28;8;8.49;4.05;44.19;75.95;278.79
2;-0.04;-12.57;-1.9;-2.36;40.62;-141.54;40.05;19.16;6.88;46.27;221.7;-23.88;-35.74;-31.84;-10.23;-63.76;-237.71;-272.73;18.35;11.01;3.75;26.31;105.4;89.47
2;8.32;-9.99;0.35;-39.17;-29.66;129.46;22.56;1.9;6.53;34.41;207.82;495.16;-11.04;-35.38;-15.11;-142.86;-173.86;-378.7;9.16;7.78;4.95;49.69;91.45;276.89
2;0.19;-12.03;-1.41;10.3;11.63;-141.4;40.71;20.6;5.75;63.44;183.15;-15.9;-31.16;-30.96;-6.34;-39.17;-235.32;-302.48;17.73;11.5;4.07;31.36;111.64;100.23
2;8.42;-10.16;-0.24;-30.77;-21.12;120.26;19.95;2.15;7.01;39.19;230.34;487.15;-8.48;-32.31;-11.04;-123.99;-136.49;-374.73;8.04;8.59;4.26;46.28;94.23;280.42
2;0.48;-12.87;-1.58;-0.5;26.85;-142.21;39.59;17.76;3.99;49.87;170.53;-24.7;-31.01;-32.19;-7.09;-32.94;-203.21;-273.91;17.79;10.62;2.78;23.7;94.07;88.1
2;7.75;-10.09;-0.48;-20.48;-24.82;115.48;18.26;2.56;4.27;25.63;198.28;502.4;-6.66;-34.73;-10.15;-92.73;-180.77;-328.59;7.31;8.25;3.9;33.57;100.89;287.66
2;0.26;-12.88;-1.7;0.36;40.89;-143.64;42.68;18.47;6.44;42.53;178.78;-27.52;-29;-33.25;-7.48;-46.31;-224.41;-280.37;18.38;10.91;3.22;23.82;97.33;90.11
2;7.57;-9.84;-0.12;-37.91;-30.22;117.61;22.6;3.01;5.98;41.29;133.21;494.35;-8.43;-34.26;-14.93;-172.56;-159.5;-325.87;8.11;8.2;4.6;60.83;83.91;277.47
2;0.6;-13.16;-1.58;0.56;47.69;-141.66;42.38;21.33;7.04;48.01;224.41;-28.27;-33.58;-30.79;-8.21;-35.55;-228.12;-278.39;19.3;11.22;3.8;24.6;111.17;86.79
2;7.18;-9.17;-0.55;-29.14;-38.38;115.73;23.07;1.78;4.75;58.23;182.16;494.71;-15.07;-30.78;-8.98;-119.28;-227.63;-305.13;9.46;7.46;3.46;46.13;84.9;276.13
2;-0.46;-12.49;-1.9;0.31;37.25;-139.38;41.01;17.75;9.2;49.1;287.45;-7.03;-38;-30.95;-9.19;-42.28;-263.12;-279.6;19.88;10.97;4.08;23.06;126.24;91.12
2;8.41;-9.1;-0.38;-15.76;-25.37;103.92;23.52;6.57;6.33;71.15;193.19;501.64;-8.73;-35.58;-16.43;-114.05;-167.92;-310.48;8.22;9.64;4.97;47.39;91.9;284.03
2;-1.1;-13.3;-2.49;2.83;57.3;-140.66;32.75;17.76;3.02;48.92;248.33;-13.54;-41.19;-32.54;-7.01;-54.26;-153.77;-264.8;18.96;11.39;3.03;28.59;105.21;85.67
2;9.33;-9.93;-0.13;-11.49;-32.05;150.24;22.11;3.9;7.59;43.53;121.53;502.69;-11.24;-33.85;-10.19;-77.72;-184.4;-375.22;7.28;8.96;3.93;33.47;79.83;288.88
2;0.73;-13.31;-1.81;1.89;6.96;-152.95;40.28;23.13;6.15;73.14;116.42;-26.74;-36.33;-32.93;-13.25;-59.01;-248.48;-327.49;19.43;13;4.41;32.21;92.63;109.44
2;6.65;-9.39;0.61;-38.01;-8.75;108.82;19.16;5.08;6.11;57.78;180.76;502.28;-9.91;-32.32;-11.66;-145.34;-195.73;-346.79;7.09;9.26;3.84;50.41;97.64;302.12
2;-0.17;-12.32;-1.98;9.28;24.57;-152.5;41.97;24.45;3.9;52.01;123.52;-20.91;-30.29;-32.61;-6.26;-33.15;-242.91;-314.45;18.29;12.09;2.72;22.38;92.67;98.01
2;8.77;-9.23;0.42;-41.21;-26.8;134.77;25.78;4.73;5.8;35.03;177.27;501.9;-4.55;-33.13;-11.1;-168.88;-191.22;-332.52;8.54;8.61;3.82;61.11;92.16;283.73
2;-0.05;-13.69;-1.63;4.09;35.2;-147.95;37.67;16.09;2.84;48.57;175.53;-41.27;-29.15;-32.14;-7.14;-29.94;-193.33;-286.43;18.55;10.57;2.9;21.1;91.27;83.95
2;6.87;-9.47;0.14;-38.19;-20.72;122.13;20.2;2.16;4.6;50.62;191.13;492.99;-7.96;-31.96;-8.42;-147.67;-160.58;-349.9;7.61;8.27;3.28;51.44;88.6;280.29
2;0.78;-12.82;-1.26;2.9;21.22;-145.71;39.42;17.95;2.92;52.89;206.32;-41.48;-25.38;-31.36;-6.05;-31.94;-210.41;-316.91;17.16;10.97;2.53;24;103.02;90.22
2;7.6;-9.55;0.34;-28.72;-4.55;124.3;23.01;4.6;7.18;38.96;221.85;500.61;-8.9;-33.11;-7.15;-108.75;-169.33;-328.78;8.57;9.11;3.91;38.14;99.58;279.08
2;0.39;-12.55;-1.92;7.43;11.21;-144.36;39.52;16.72;3.12;53.74;131.78;-5.14;-35.27;-31.37;-7.09;-25.92;-187.51;-307.72;18.23;10.96;2.87;22.23;93.24;103.36
2;7.69;-10.49;-0.22;-23.68;-16.48;124.71;31.24;3.17;9.52;33.47;126.83;500.73;-15.86;-35.69;-11.63;-104.53;-221.49;-407.37;9.73;9.45;5.62;42.96;98.11;287.79
2;-0.07;-12.79;-1.82;-5.14;35.47;-153.32;45.46;24.66;6.42;51.88;192.88;-27.38;-33.21;-29.45;-13.88;-76.82;-277.11;-294.61;18.14;11.94;4.14;29.3;111.9;95.66
2;8.14;-9.45;-0.31;-21.68;-26.63;126.97;23.87;4.45;5.36;47.64;173.27;501.66;-8.65;-33.55;-12.48;-111.68;-186.4;-327.43;8.59;9.15;4.15;43.22;81.98;285.48
2;0.85;-12.46;-1.28;1.22;30.74;-135.65;37.43;24.95;3.11;40.34;172.24;-24.55;-30.91;-29.73;-5.64;-47.18;-207.96;-278.62;18.08;12.57;2.34;23.37;98.86;88.37
2;8.18;-9.61;-0.51;-21.35;-21.42;110.32;20.05;2.41;6.2;45.14;220.32;471.52;-8.24;-31.01;-11.74;-106.94;-135.49;-373.81;8.07;8.3;4.29;40.37;84.21;271.76
2;-0.27;-13.3;-1.85;-1.86;35.27;-147.5;37.59;18.75;3.58;47.97;135.66;-27.34;-29.25;-32.15;-7.75;-47.01;-190.07;-293.69;17.08;11.42;3.3;24.16;88.36;90.31
2;8.8;-8.83;0.3;-34.99;-30.27;144.68;20.43;2.93;6.72;47.05;103.7;498.96;-7.68;-33.83;-15.59;-130.22;-161.36;-388.71;5.97;8.4;5.15;50.88;65.88;284.4
2;1.09;-12.36;-0.85;4.39;8.05;-143.02;41.83;24.84;5.59;53.64;176.68;-30.58;-26.03;-32.71;-6.26;-46.45;-221.13;-322.43;17.81;12.18;3.31;31.53;110.64;97.36
2;8.09;-10.16;-1.12;-18.35;2.28;112.22;22.36;1.54;5.49;33.88;218.32;501.31;-7.64;-35.02;-18.69;-98.3;-115.41;-396.83;7.23;8.2;5.26;40.2;95.78;294.17
2;0.19;-12.07;-1.29;4.2;22.12;-138.38;38.25;16.97;7.74;52.85;171.03;-20.57;-25.77;-30.31;-8.61;-44.07;-234.24;-285.18;17.05;10.6;3.71;26.92;103.51;92.42
2;7.9;-10.23;0.37;-31.24;-22.75;130.81;20.94;3.26;6.56;36.65;171.23;488.69;-11.68;-35.3;-12.48;-115.38;-137.19;-362.38;7.38;9.31;5.43;48.83;88.16;287.66
2;0.88;-12.28;-1.79;-3.31;30.56;-142.37;42.98;26.32;5.26;45.71;151.41;-21.62;-30.13;-32.76;-6.51;-45.38;-213.06;-307.09;18.73;12.57;3.32;25.01;92.47;94.85
2;7.64;-9.6;0.15;-37.82;-21.06;124.29;23.3;3.04;5.98;26.35;135.79;490.42;-10.05;-35.23;-16.46;-171.96;-138.42;-323.22;8.85;9.03;5.21;59.89;68.91;279.35
2;0.59;-12.41;-1.33;7.38;32.17;-135.19;36.25;17.38;5.07;44.86;208.26;-14.41;-34.16;-30.45;-6.82;-33.59;-184.01;-293.77;17.55;11.17;4;23.06;103.61;90
2;7.68;-10.41;-0.08;-17.38;-34.47;104.31;18.42;0.01;6.66;59.59;184.74;485.69;-8.68;-33.38;-10.85;-100.73;-211.89;-373.36;7.74;7.41;4.91;41.17;93.9;279.72
2;-0.17;-12.53;-1.85;-0.26;22.11;-148.2;38.14;26.51;3.4;38.7;134.54;-20.84;-32.39;-32.28;-6.27;-51.85;-149.67;-296.61;18;12.93;2.87;25.3;80.07;94.36
2;8.3;-9.11;0.89;-50.26;-13.29;130.75;21.19;1.63;7.37;25.89;165.4;476.89;-2.85;-31.69;-14.58;-157.56;-190.42;-355.39;5.67;8.88;4.79;61.13;91.34;274.43
2;0.56;-12.93;-1.3;7.52;12.86;-147.65;35.05;18.42;5.77;60.11;153.38;-19.15;-35.2;-30.33;-5.87;-34.44;-205.18;-303.09;18.78;11.45;3.16;29.19;111.75;98.62
2;8.27;-9.23;-0.52;-33.29;-8.32;128.17;19.46;1.36;5.91;22.46;256.25;475.72;-4.95;-30.26;-17.17;-95.84;-177.54;-409.4;5.9;8.54;5.21;38.29;129.55;283.1
2;0.05;-13.3;-1.42;11.98;40.48;-155.02;39.13;18.91;7.03;61.43;241.89;-17.6;-30.1;-31.13;-5.67;-26.3;-231.55;-317.92;17.62;10.92;3.77;27.31;110.18;100.03
2;7.8;-8.39;-0.42;-33.08;-27.87;133.59;23.88;5.6;10.5;40.69;207.94;497.94;-7.52;-35.07;-13.65;-105.49;-231.65;-364.14;8.29;9.21;4.6;37.82;118.66;287.38
2;0.1;-13.04;-1.22;12.9;25.88;-150.39;40.75;20.6;11.21;76.84;144.19;-31.87;-29.55;-31.44;-5.26;-43.53;-223.72;-313.25;18.75;11.36;3.09;23.44;90.85;94.18
2;7.28;-9.31;0.07;-33.48;-13.83;125.16;27.45;8.91;5.96;62.5;141.85;498.16;-14.46;-35.35;-10.08;-157.06;-185.36;-333.02;9.95;9.89;3.92;56.77;104.96;287.76
2;0.02;-12.91;-1.71;13.44;22.96;-154.75;41.31;24.4;5.3;62.74;179.46;-22.39;-38.47;-28.79;-7.16;-42.96;-228.07;-292.77;19.04;11.46;3.6;25.74;104.94;96.04
2;8.33;-8.83;0.15;-37.19;-20.78;130.87;24.7;4.82;7.17;39.21;112.21;490.22;-7.12;-34.35;-10.54;-143.99;-197.37;-327.3;7.89;8.75;3.67;52.78;92.2;275.53
2;0.36;-13.51;-1.29;5.21;32.44;-149.31;40.94;18;4.53;43.48;158.46;-34.79;-35.71;-32.47;-7.4;-39.15;-192.04;-289.79;19.39;11.28;3.14;22.09;89.74;86.64
2;7.8;-9.13;-0.17;-23.49;-18.28;127.82;17.87;3.09;9.21;38.5;179.82;487.65;-8.22;-29.75;-6.11;-105.51;-233.07;-363.61;7.71;8.26;3.51;39.88;104.15;273.74
2;-0.12;-13.78;-2.04;-2.78;17.78;-166.45;39.6;21.48;6.89;46.19;144.47;-38.67;-35.96;-32.95;-11.01;-47.94;-247.19;-314.18;19.34;11.82;4.02;23.64;97.99;94.95
2;9.22;-6.56;0.35;-25.02;-0.21;166.67;19.15;4.92;5.4;39.54;236.47;501.4;-2.07;-21.26;-8.59;-89.47;-156.92;-243.78;6.27;7.77;3.39;38.53;106.17;274.68
2;-0.96;-14.7;-2.26;-2.77;32.84;-156.71;37.06;20.71;10.68;46.27;282.18;-8.69;-40.12;-33.52;-18.96;-99.03;-198.96;-329.02;19.8;11.99;5.73;39.02;119.92;98.8
2;7.36;-8.61;-1.03;-7.49;-19.92;101.42;25.12;8.24;5.7;62.13;245.37;494.42;-16.92;-35.94;-9.38;-104.98;-230.42;-319.43;10.41;10.06;4.07;49.51;111.5;285.2
2;-0.37;-12.81;-2.5;7;41.34;-129.32;40.77;27.56;5.25;52.13;165.02;0.47;-33.95;-26.63;-7.16;-48.99;-230.48;-267.19;18.68;11.91;3.33;24.67;95.31;90.91
2;7.89;-8.79;0.73;-32.44;-28.49;104.7;24.95;4.21;7.4;48.07;108.58;458.59;-13.67;-32.23;-9.63;-168.93;-165.82;-282.47;9.04;8.58;3.8;63.35;79.6;262.78
2;0.26;-12.97;-1.99;12;34.37;-129.43;35.65;16.5;2.78;64.98;203.42;-20.28;-37.35;-28.58;-7.66;-42.45;-187.19;-246.09;18.1;10.65;3.01;27.08;109.79;80.4
2;7.61;-9.1;-0.22;-28.36;-9.93;124.26;18.98;0.97;4.21;42.58;140.18;472.32;-11.6;-32.66;-10.36;-123.36;-143.74;-342.41;7.5;7.43;3.79;44.8;75.43;263.69
2;0.65;-12.18;-1.25;12.84;19.32;-134.08;40.41;17.65;6.28;51.66;119.19;-12.05;-23.72;-25.67;-7.5;-27.72;-229.37;-288.78;16.03;9.52;3.11;23.38;88.41;90.66
2;7.71;-9.63;-0.4;-29.76;-30.84;119.53;18.05;0.06;6.78;28.52;57.52;478.28;-9.13;-34.07;-16.41;-122;-115.71;-358.67;7.26;8.41;5.57;46.71;51.09;275.98
2;1.47;-11.74;-0.69;3.32;15.36;-130.33;34.99;22.68;6.28;58.92;156.93;-15.29;-30.52;-27.83;-4.38;-45.37;-224.37;-289.48;17.19;11.71;3.76;28.59;100.77;97.06
2;7.21;-9.94;0.57;-46.48;-7.55;112.59;18.5;-1.04;8.74;29.2;181.77;450.33;-7.79;-33.82;-10.51;-146;-157.1;-342.44;6.55;7.06;3.89;53.79;96.03;257.42
2;0.94;-11.76;-1.3;14.15;16.69;-130.42;36.13;18.45;7.95;59.09;141.9;-11.65;-28.75;-24.46;-5.26;-34.87;-192.64;-293.62;15.83;9.74;2.84;23.76;91.09;93.01
2;7.11;-9.73;-0.12;-36.08;-14.76;114.55;21.74;2.58;6.27;26.25;120.91;468.6;-13.42;-32.76;-11.67;-128.84;-185.54;-333.88;8.43;8.75;4.43;44.15;94.54;265.61
2;0.91;-11.98;-1.5;11.09;13.31;-130.55;41.52;24.03;4.23;68.97;175.38;-8.48;-30.2;-26.94;-8.21;-43.5;-258.88;-282.41;17.16;11.39;3.7;30.11;110.32;91.68
2;7.87;-9.28;0.35;-34.55;-12.49;121.58;18.49;1.1;7.56;53.57;129.44;455.23;-8.03;-34;-12.02;-131.14;-159.77;-377.24;7.42;8.6;4.66;52.58;75.99;262.89
2;0.65;-12.43;-0.85;12.18;19.05;-135.85;39.67;20.75;9.05;68.12;110.83;-27.35;-22.74;-26.82;-6.02;-50.29;-212.51;-294.17;16.14;10.68;3.53;31.89;87.47;94.05
2;7.86;-9.32;-0.04;-35.95;-10.18;109.75;18.87;1.95;8.77;29.52;151.13;472.56;-3.59;-35.16;-12.28;-134.42;-204.76;-311.59;6.44;8.27;4.37;49.51;99.34;264.55
2;0.21;-13.08;-1.21;16.83;21.64;-140.97;31.82;14.7;11.11;55.3;117.84;-30.94;-27.27;-27.1;-6.76;-39.15;-188.02;-272.58;15.66;9.72;3.42;22.17;86.47;83.91
2;8.21;-8.7;0.03;-34.41;-18.81;127.97;17.12;2.82;9.5;31.4;127.71;475.36;-3.43;-34.16;-11.91;-109.23;-243.94;-316.14;5.68;9.18;3.89;40.65;97.28;261.09
2;0.24;-13.22;-1.39;10.8;46.77;-138.13;29.84;17.94;8.46;71.02;165.17;-20.49;-29.41;-27.67;-7.13;-47.61;-142.69;-277.05;16.06;10.58;3.33;26.95;88.37;86.45
2;6.95;-8.57;-0.75;-17.52;-22.81;119.36;20.04;7.35;3.64;37.62;171.86;493.91;-13.57;-31.82;-8.12;-89.57;-160.07;-289.94;8.34;9;3.4;39.67;86.63;275.99
2;0.81;-12.1;-2.06;13.12;31.55;-129.07;39.01;16.86;4.3;61.65;215.14;-10.59;-32.53;-25.64;-11.75;-36.61;-233.34;-276.77;17.17;10.14;3.63;29.55;115.64;87.89
2;7.34;-9.3;0.12;-22.06;-20.02;113.82;20.38;4.67;6.89;85.61;95.65;463.1;-11.31;-33.82;-11.85;-135.46;-164.29;-337.75;8.43;8.97;4.3;53.61;76;265.95
2;0.91;-12.2;-1.43;9.14;22.94;-136.08;40.04;28.28;4.16;66.73;129.64;-33.73;-28.16;-27.91;-6.08;-52.19;-216.75;-275.6;16.93;12.63;2.68;25.34;86.29;84.69
2;7.02;-9.18;0.31;-33.76;-11.55;123.8;23.66;4.96;11.18;34.69;116.84;470.9;-15.92;-34.57;-7.43;-164.05;-200.15;-333.15;10.02;8.47;4.35;61.78;85.37;267.48
2;1.29;-12.67;-1.54;9.14;27.39;-140.09;41.12;28;6.87;86.9;172.26;-18.28;-29.75;-27.31;-7.28;-49.31;-237.96;-301.89;17.26;11.6;3.63;29.46;102.08;97.6
2;7.88;-7.48;0.82;-52.25;-9.6;144.65;23.99;2.76;6.01;17.88;130.62;485.5;-11.01;-15.39;-7.96;-186.53;-237.25;-228.02;9.9;6.97;3.89;63.6;96.26;252.52
2;-0.07;-13.7;-1.27;15.61;5.56;-151.55;38.85;23.27;9.96;83.2;108.28;-5.71;-35.75;-35.82;-7.18;-55.72;-214.8;-338.85;18.75;12.55;3.82;32.45;105.2;103.46
2;6.95;-8.26;-0.21;-29.48;-25.87;97.72;25.79;17.98;10.29;90.54;103.43;480.5;-14.03;-34.93;-11.24;-159.57;-239.2;-301.55;9.15;10.05;4.35;59.82;97.9;280.82
2;0.75;-12.86;-2.19;7.29;45.5;-128.78;38.44;21.13;3.34;55.1;216.54;-7.73;-34.27;-23.76;-9.24;-31.36;-162.08;-266.95;17.03;9.41;2.49;23.46;95.24;88.74
2;6.8;-8.94;-0.24;-20.54;-29.03;120.4;21.78;4.61;6.91;43.43;162.89;460.01;-10.97;-35.25;-9.65;-92.2;-224.08;-318;8.21;8.93;3.98;42.89;99.54;265.6
2;1.24;-12.28;-1.69;3.04;32.08;-126.46;38.53;20.73;4;61.94;211.13;10.17;-34.76;-29.63;-6.96;-43.1;-199.24;-265.84;17.57;10.64;3.24;25.51;99.4;94.85
2;7.11;-8.53;-0.17;-29.94;-23.9;111.19;21.49;5.39;5.42;35.77;186.12;452.89;-11.08;-28.45;-12.1;-138.65;-147.77;-311.16;7.76;7.95;4.55;53.97;75.05;258.47
2;0.43;-12.41;-0.99;8.75;28.74;-125.07;28.11;12.37;5.99;58.43;167.1;2.71;-28.42;-25.88;-7.27;-45.91;-192.07;-260.96;15.61;9.36;3.94;26.57;97.17;93.21
2;7.38;-8.71;-0.21;-30.32;-20.35;112.54;19.24;2.51;6.07;38.89;118.71;443.87;-4.03;-34.03;-11.85;-126.7;-178.15;-327.48;6.9;8.11;4.03;46.36;86.64;247.66
2;1.01;-12.23;-0.55;14.55;15.3;-127.42;34.2;7.89;7.53;58.04;153.21;-14.31;-25.26;-26.25;-5.45;-27.27;-162.15;-278.09;15.06;8.37;3.05;22.91;93;86.21
2;7.27;-9.08;-0.33;-22.95;1.27;106.68;18.43;2.2;4.53;42.53;156.43;455.05;-15.25;-26.4;-8.16;-110.39;-130.32;-326.77;7.65;8.41;3.9;43.83;77.21;261.28
2;0.86;-12.63;-1.08;9.37;4.49;-126.12;40.13;11.03;4.4;44.49;209.7;-21.95;-28.01;-23.45;-7.68;-26.8;-281.86;-261.38;16.33;8.01;2.9;21.15;111.01;86.3
2;6.91;-8.8;0.32;-37.33;-0.1;114.86;17.15;2.86;8.02;27.23;188.4;444.16;-7.64;-32.83;-15.65;-125.82;-203.37;-335.7;6.68;8.73;5.14;45.98;99.76;254.87
2;0.87;-11.29;-0.75;23.3;16.64;-118.54;28.51;17.11;13.19;93.48;136.72;1.75;-25.82;-24.06;-5.67;-25.93;-188.41;-256.77;15.14;9.5;4.16;28.01;88.52;95.8
2;6.44;-9.5;0.07;-35.26;-13.31;93.44;20.95;3.49;14.11;51.62;134.6;452.72;-10.2;-35.53;-9.31;-120.59;-204.7;-317.14;7.47;8.51;4.2;40.72;100.3;256.55
2;0.99;-11.57;-1.73;21.79;20.04;-130.06;35.18;17.96;12.22;76;153.34;0.04;-29.54;-24.11;-6.55;-32.39;-197;-273.71;16.39;10.08;3.56;26.57;97.92;95.12
2;7.03;-9.21;-0.17;-35.96;-33.12;98.14;24.54;6.85;5.7;54.66;153.83;476.85;-8.79;-34.59;-10.38;-136.19;-204.01;-310.59;8.06;8.69;3.71;43.49;100.99;269.52
2;0.25;-12.25;-1.42;7.35;34.72;-120.95;36.87;22.62;6.01;61.59;196.71;5.89;-36.43;-27.43;-5.98;-41.25;-149.33;-260.31;17.68;11.01;3.04;28.3;95.72;92.12
2;6.9;-9.64;0.04;-34.82;-3.47;112.09;20.7;3.04;9.11;34.16;100.43;450.1;-11;-35.48;-12.32;-157.56;-135.58;-337;7.47;8.15;4.55;57.94;69.75;261.11
2;0.66;-11.94;-1.57;13.61;11.95;-131.97;34.05;21.99;10.43;73.2;121.99;-12.72;-26.67;-23.69;-7.12;-45.19;-225.85;-294.48;15.32;10.44;3.75;27.39;88.89;96.28
2;6.98;-9.31;0.36;-26.66;-24.1;121.93;24.96;5.06;13.19;88.83;97.37;480.65;-14.6;-33.93;-10.62;-131.78;-176.82;-318.63;9.84;9.57;4.8;48.94;71.49;277.69
2;1.52;-11.41;-1.21;7.76;17.29;-131.58;39.58;28.71;3.82;66.95;157.05;-8.38;-34.67;-25.29;-5.02;-57.55;-231.47;-276.41;17.32;12.06;3.29;27.63;103.54;98.32
2;7.71;-9.05;-0.36;-23.82;-9.97;119.52;22.13;5.55;9.79;35.44;123.74;457.41;-8.99;-35.55;-12.2;-130.27;-148.09;-333.55;8.35;9.63;5.01;47.11;72.69;266.35
2;0.99;-12.05;-1.55;6.92;25.12;-124.49;31.68;21.15;5.46;75.98;173.12;9.81;-32.26;-24.87;-7.56;-45.88;-153.57;-267.74;15.96;11.03;3;30.44;88.14;102.05
2;7.28;-8.12;0.09;-32.89;-9.67;112.85;21.09;5.63;10.68;42.72;123.14;437.95;-6.58;-34.04;-13.4;-128.73;-182.29;-303.88;7.53;10.12;4.72;52.61;72.86;254.92
2;0.68;-11.98;-1.21;14.99;34.3;-118.16;27.08;18.11;13.85;93.32;209.8;15.98;-31.28;-25.87;-7.2;-52.73;-233.62;-240.1;15.36;10.39;3.88;29.79;106.16;90.73
2;7;-8.64;-0.65;-32.14;-40.88;116.28;20.5;1.52;4.93;41.88;88.59;424.61;-12.07;-33.76;-15.47;-127.59;-159.88;-306.26;8.06;8.15;4.8;46.85;64.05;243.33
2;1.05;-12.01;-0.78;5.32;27.27;-122.75;33.02;17.62;8.75;65.56;214.9;8.03;-31.39;-27.07;-7.47;-52.57;-243.08;-261.66;15.6;10.21;3.39;29.35;109.49;94.17
2;6.71;-8.93;0.42;-32.4;-16.05;112.6;20.11;1.23;6.38;53.84;145.04;417.44;-9.2;-30.78;-8.73;-138.37;-126.71;-387.42;7.12;7.96;4.31;52.78;76.92;248.31
2;1.37;-11.52;-1.25;4.39;25.05;-118.92;38.14;24.4;6.27;66.94;193.93;3.56;-25.08;-25.52;-6.46;-64.66;-201.02;-273.5;15.11;11.37;3.4;25.25;91.24;98.56
2;6.31;-9.33;0.39;-37.45;-32.32;102.46;16.61;0.29;8.12;39.76;166.6;435.4;-5.12;-34.39;-11.51;-131.43;-176.15;-333.61;6.15;7.34;3.98;51.73;92.06;244.22
2;1.39;-11.3;-0.91;9.25;37.48;-116.45;35.05;14.96;7.65;39.37;159.59;2.84;-23.86;-24.55;-5.41;-38.47;-186.92;-268.61;14.88;8.85;2.48;20.58;78.44;92.26
2;6.24;-9.16;0.34;-44.6;-13.46;96.02;19.12;3.44;7.08;21.27;147.02;427.47;-3.71;-33.09;-11.97;-152.85;-232.64;-319.39;6.63;7.55;4.03;53.04;110.06;240.02
2;0.96;-12.05;-0.64;18.45;12.87;-126.27;27.6;16.13;10.37;76.12;144.31;-12.8;-27.71;-24.29;-5.39;-27.51;-166.43;-273.97;14.54;9.04;3.18;22.83;87.22;90.26
2;7.16;-9.23;-0.5;-32.19;-4.13;112.4;19.52;3.31;8.63;43.12;135.24;458.55;-14.11;-36.5;-16.89;-112.79;-200.87;-319.61;7.37;9.42;5.3;46.1;106.12;256.31
2;0.65;-11.41;-0.78;19.36;12.76;-124.61;37.87;17.2;15.61;93.01;172.77;-7.5;-25.15;-25.47;-7.55;-36.6;-306.88;-266.98;15.13;9.41;4.7;31.35;105.44;92.12
2;7.35;-8.94;-0.17;-32.36;-19.45;115.74;15.14;0.23;9.13;36.63;107.94;423.09;-7.17;-32.59;-12.95;-98.88;-168.55;-339.85;5.88;8.59;4.39;41.69;69.3;242.94
2;1.12;-11.89;-1.11;10.25;33.07;-121.62;33.22;14.23;9.6;67.28;183.77;-10.09;-28.37;-23.16;-6.5;-37.49;-194.71;-254.85;14.8;8.8;3.5;27.48;96.83;91.4
2;6.99;-9.18;-0.02;-16.69;-34.83;108.44;20.94;5.69;8.6;47.24;92.73;430.67;-7.51;-36.03;-11.8;-111.91;-138.73;-354.38;7.88;10.18;5.3;44.37;59.4;256.45
2;0.95;-11.59;-1.18;-1.3;36.89;-120.18;33.8;21.54;5.14;75.57;207.3;7.49;-30.12;-25.92;-5.34;-59.14;-176.17;-257.71;15.93;10.68;3.31;25.22;91.12;92.93
2;6.84;-9.36;-0.29;-18.37;-38.77;103.21;26.63;5.68;7.73;34.88;170.23;461.53;-8.03;-33.16;-12.74;-150.69;-152.4;-310.2;9.73;9.16;5.36;54.6;88.07;259.35
2;1.62;-11.41;-0.83;-3.25;24.55;-121.87;26.11;19.29;4.78;51.14;196.39;3.54;-32.5;-25.63;-5.6;-51.74;-135.95;-280.27;14.84;10.14;3.05;27.3;90.53;96.82
2;6.77;-8.69;0.37;-29.5;-23.2;92.5;17.65;1.58;6.42;49.9;111.34;448.78;-8.58;-34.99;-15.28;-123.48;-181.26;-319.62;5.86;8.59;5.14;49.83;74.49;260.97
2;0.49;-12.51;-1.47;0.64;66.25;-121.83;29.99;18.86;6.49;41.2;273.96;20.28;-33.47;-27.14;-5.9;-46.92;-124.15;-250.79;16.26;10;3.29;19.33;99.97;93.39
2;6.96;-8.39;0.58;-34.42;-47.17;94.9;37.55;6.5;5.58;65.84;88.57;438.33;-18.45;-32.2;-12.73;-123.98;-196.05;-315.8;8.89;7.71;3.83;47.89;83.23;250.86
2;-0.72;-13.46;-1.22;11.87;41.87;-132.84;37.82;15.15;7.45;75.87;191.4;2.25;-36.02;-26.6;-7.86;-36.48;-81.4;-260.55;16.08;8.91;4.13;26.74;75.69;90.54
2;8.38;-6.03;0.22;-31.24;1.55;156.94;23.35;4.6;7.22;74.38;157.8;482.8;-8.92;-14.77;-8.33;-152.84;-225.79;-204.98;7.35;6.11;4.29;63.63;101.7;243.14
2;0.9;-13.12;-1.18;1.78;19.14;-140.43;31.35;19.66;6.98;56.39;185.32;-9.61;-27.21;-36.13;-11.71;-96.17;-234.65;-338.55;15.62;10.64;3.53;31.66;107.29;97.75
2;5.46;-8.88;0.23;-33.89;-27.88;85.24;21.44;2.93;5.76;85.98;162.64;456.59;-20.38;-35.71;-11.1;-157.84;-239.27;-297.17;9.27;8.07;3.54;57.71;98.39;255.47
2;1.02;-11.95;-1.57;11.34;40.57;-123.98;36.2;18.39;3.82;44.39;159.97;18.05;-32.07;-24.72;-6.4;-25.98;-173.66;-266.51;16.58;9.62;2.73;20.17;80.35;96.91
2;6.92;-8.33;-0.09;-19.53;-34.85;96.46;18.52;4.66;10.17;50.43;66.08;454.82;-10.77;-33.84;-14.12;-104.34;-151.7;-288.26;6.22;9.05;4.52;44.11;66.71;257.73
2;0.72;-11.93;-1.62;7.05;48.91;-114.99;22.24;16.81;7.86;48.12;237.17;7.22;-33.25;-25.04;-9.49;-47.86;-131.01;-247.14;14.98;9.13;3.02;22.78;100.95;86.82
2;6.94;-8.1;0.32;-17.74;-34.18;104.63;20.19;6.2;7.41;60.18;70.04;423.66;-9.59;-34.07;-9.71;-97.99;-141.36;-278.53;7.22;10.37;4.45;45.49;47.38;244.05
2;0.65;-11.96;-1.31;8.17;25.44;-119.48;26.35;17.27;5.08;52.58;149.51;6.51;-30.69;-24.61;-5.1;-42.29;-154.38;-246.04;15;9;2.71;22.22;87.46;88.2
2;6.36;-8.58;-0.15;-22.93;-23.34;92.23;18.4;3.44;7.05;55.54;96.09;456.9;-14.32;-35.57;-12.02;-112.54;-205.96;-304.53;7.08;8.45;4.31;46.99;72.65;259.53
2;0.79;-12.69;-1.18;-1.54;57.06;-133.31;35.81;21.03;5.71;56.8;224.88;16.53;-25.47;-28.15;-6.85;-41.04;-208.15;-265.98;14.78;9.63;3.58;25.02;99.55;91.69
2;8.12;-6.13;0.83;-32.68;-22.66;153.21;20.56;4.14;5.26;57.28;97.87;432.91;-16.09;-18.24;-8.83;-123.12;-132.16;-198.72;6.36;6;3.13;56.63;65.33;217.48
2;0.85;-13.71;-0.86;3.56;15.48;-133.12;33.09;13.68;5.43;33.75;160.93;-2.99;-26.03;-35.32;-5.64;-51.38;-208.54;-300.74;15.48;9.8;3.11;23.57;90.34;92.15
2;6.36;-8.36;-0.09;-16.94;-21.6;86.56;21.06;6.85;7.32;43.13;158.95;436.89;-13.93;-35.84;-11.35;-111.07;-161.78;-281.16;7.66;8.9;4.4;48.6;62.96;248.32
2;0.72;-12.24;-1.89;5.67;41.59;-121.29;28.38;16.36;3.59;39.15;180.95;-8.98;-30.05;-24.13;-9.7;-45.74;-159.92;-252.99;13.81;8.48;2.96;21.11;81.18;83.39
2;6.9;-7.93;0.83;-24.35;-28.27;110.54;19.59;4.62;7.15;62.26;77.62;432.97;-8.39;-32.57;-8.6;-113.57;-164.11;-274.4;6.33;8.55;4.41;47.55;77;241.87
2;1.02;-12.08;-1.35;7.13;30.2;-118.69;26.86;15.05;3.44;43.3;162.48;-7.3;-24.73;-23.68;-4.84;-45.33;-151.91;-251.57;13.86;8.23;2.46;22.56;81.36;83.5
2;6.75;-8.76;0.18;-31.4;-25.35;98.54;18.68;2.95;6.02;45.57;120.06;448.95;-8.43;-33.06;-8.89;-120.14;-160.61;-270.53;6.77;8.95;3.59;46.47;73.97;246.58
2;1.11;-12.15;-1.47;7.23;35.98;-121.73;28.23;12.01;3.72;43.83;171.95;-20.13;-27.6;-23.25;-8.18;-37.43;-139.43;-247.75;13.29;8.15;3.07;24.35;78.91;78.38
2;7.08;-8.37;-0.16;-22.86;-17.38;106.31;20.05;4.28;14.03;90.33;89.59;461.86;-9.41;-35.67;-13.06;-108.23;-206.2;-297.68;6.6;8.7;4.85;47.74;69.54;261.08
2;1.11;-11.38;-1.74;13.77;40.52;-113.19;24.5;20.6;9;63.65;180.28;-3.59;-26.82;-26.37;-4.74;-58.82;-136.22;-250.37;13.87;9.93;2.73;28.88;94.18;81.87
2;6.84;-8.47;-0.43;-19.54;-19.49;108.68;17.68;2.57;6.59;29.84;133.99;436.08;-9.34;-29.63;-8.4;-88.72;-191.94;-288.97;6.5;7.07;4.31;37.78;85.43;244.31
1;6.34;-9.49;-1.05;-10.25;-27.81;90.11;26.89;-3.84;5.59;56.77;112.84;392.87;-4.58;-20.61;-10.45;-79.68;-135.14;-340.81;7.57;4.6;4.52;40.83;85.13;214.89
1;2.07;-11.53;-0.57;-2.67;30.61;-94.28;17.53;1.75;6.04;42.96;199.94;-28.09;-13.68;-18.61;-6.76;-37.67;-161.15;-231.19;8.2;4.5;2.24;25.1;68.18;66.13
1;5.02;-9.24;-0.18;-29.39;-23.58;98.56;15.23;-0.71;5.46;45.5;175.79;402.94;-11.39;-24.05;-7.07;-103.03;-245.95;-291.53;6.62;5.65;3.11;35.88;119.73;220.92
1;2.56;-11.43;-1.09;13.66;23.63;-111.8;23.2;-3.36;2.66;60.94;91.8;-44.89;-11.05;-19.15;-4.65;-23.52;-99.6;-258.81;7.98;3.73;1.67;29.56;49.98;64.96
1;5.93;-8.93;-0.63;-33.22;-24.54;103.32;11.36;-2.2;3.48;20.77;115.99;379.48;-5.58;-33.64;-15.92;-87.01;-172.5;-294.01;4.04;6.17;4.14;31.53;82.35;212.97
1;3.04;-11.83;-1.06;4.2;15.15;-107.69;24.29;5.03;7.32;46.6;134.24;-44.78;-11.94;-24.91;-6.57;-43.3;-160.29;-252.68;8.64;5.24;2.58;24.55;74.37;57.25
1;6.22;-9.7;0.74;-46.75;-9.31;146.54;18.92;-2.51;6.05;27.81;195.96;408;-10.97;-34.22;-8.96;-116.16;-207.1;-301.31;7.39;7.2;2.97;39.28;128.29;216.8
1;2.4;-11.19;-1.11;12.23;28.03;-118.16;27.74;4.26;2.4;52.11;133.77;-55.12;-10.34;-17.23;-4.93;-16.42;-170.77;-279.1;9.56;5.22;1.79;23.11;64.38;60.83
1;6.15;-9.42;-0.2;-26.15;-27.13;99.01;14.96;-2.94;5.08;22.58;100.23;389.34;-9.16;-21.36;-5.95;-94.78;-263.66;-305.81;5.87;4.54;3.07;31.68;88.62;213.98
1;2.82;-12.3;-0.6;13.51;23.97;-107.09;23.51;-5.07;3.29;60.53;98.27;-51.58;-15.56;-18.17;-3.25;-18.54;-145.62;-236.78;9.17;3.48;1.56;22.46;52.21;51.77
1;5.23;-9.81;-0.13;-28.02;-30.05;90.39;15.94;-1.06;8.37;62.17;147.9;343.51;-12.01;-29.94;-7.54;-120.64;-164.36;-277.33;6.84;5.75;3.31;43.43;94.02;200.25
1;1.92;-11.95;-0.66;-6.62;23.57;-114.55;29.33;6.94;3.79;40.7;161.77;-31.2;-15.91;-21.3;-8.37;-40.56;-194.94;-224.42;10.56;6.22;2.47;18.06;86.34;67.02
1;5.59;-9.16;0.18;-28.9;-18;95.99;16.93;-4.15;9.39;43.25;199.37;349.16;-10.18;-21.98;-7.32;-99.76;-205.89;-275.76;6.73;4.83;3.58;38.95;95.93;208.17
1;1.31;-11.82;-1.01;8.41;28.86;-115.77;24;1.31;7.7;37.07;183.54;-57.44;-12.28;-19.81;-6.25;-26.85;-140.72;-221.33;8.94;4.53;2.09;19.34;72.1;55.36
1;6.57;-9.69;-0.06;-29.04;-47.3;104.6;14.96;-1.47;7.73;14.56;133.05;382.96;-6.92;-33.26;-8.44;-96.43;-187.35;-270.57;6.06;6.57;4.03;33.71;79.98;209.16
1;2.03;-11.56;-0.98;2.01;28.12;-115.78;22.57;5.24;3.51;49.22;124.3;-62.61;-14.99;-21.88;-7.25;-32.68;-101.69;-251.24;9.14;5.51;2.53;22.97;61.19;55.83
1;6.46;-9.04;-0.11;-33.95;-25.7;106.35;14.56;-1.31;6.42;34.73;149.05;378.62;-7.08;-26.6;-10.85;-113.45;-158.19;-254.16;5.08;5.51;4.51;39.5;79.89;208.66
1;1.94;-11.93;-0.48;4.01;23.55;-113.16;26.46;7.67;6.68;41.98;136.93;-48.63;-14.95;-33.32;-4.42;-28.98;-179.04;-247.98;9.86;7.05;2.61;23.45;74.04;64.59
1;5.91;-9.34;-0.12;-30.64;-21.76;90.99;14.09;-1.35;6.58;40.05;212.07;356.13;-8.92;-23.08;-7.11;-116.89;-234.65;-294.63;6.06;5.48;3.25;41.36;113.46;208.7
1;2.44;-12.04;-0.94;9.12;26.86;-111.94;22.23;-1.78;3.16;54.22;115.67;-50.86;-13.05;-18.93;-4.06;-24.69;-79.82;-261.05;9.03;4.51;1.72;24.95;55.31;61.2
1;6.42;-8.83;0.11;-39.89;-23.62;113.16;12.13;-0.47;5.85;29.62;149.22;388.94;-6.48;-28.34;-6.67;-126.17;-205.67;-270.31;3.96;5.4;3.04;39.09;90.64;211.15
1;2.76;-11.3;-0.37;5.9;22.59;-100.08;24.54;0.57;5.3;50.62;91.81;-38.94;-10.72;-28.76;-3.8;-25.45;-122.97;-267.16;8.79;5.58;1.86;24.51;62.13;68.09
1;5.04;-10.23;-0.65;-28.26;-22.31;75.11;16.5;-3.54;7.36;65.39;148.62;376.98;-8.07;-31.36;-8.66;-125.05;-235.5;-285.14;6.29;5.67;4.06;50.73;97.45;206.33
1;1.58;-11.45;-0.93;7.01;37.31;-106.98;28.01;5.4;3.73;60.74;173.67;-52.99;-11.7;-20.47;-6.8;-26.55;-135.95;-256.19;9.77;5.92;2.06;25.72;71.95;55.47
1;6.63;-8.95;-0.29;-32.1;-35.23;108.92;15.88;-0.54;6.88;13.39;160.45;383.25;-9.04;-28.62;-8.87;-110.28;-198.37;-269.08;5.99;5.84;3.67;34.04;111.43;207.29
1;2.09;-11.98;-0.82;5.23;20.98;-122.14;32.31;4.93;6.51;58.55;131.01;-61.08;-14.09;-27.38;-7.81;-39.42;-196.4;-263.76;10.73;5.64;2.32;27.76;77.25;57.28
1;6.79;-8.95;-0.22;-20.32;-13.34;96.95;20.99;-1.24;4.93;51.64;103.61;358.71;-11.3;-25.51;-6.96;-101.57;-169.57;-282.19;6.77;5.71;3.03;39.65;70.49;213.23
1;1.25;-11.34;-0.92;9.69;12.37;-107.89;24.25;-2.22;1.74;63.66;90.67;-34.66;-11.22;-18.2;-4.04;-21.48;-136.26;-235.9;9.44;3.92;1.44;24.09;50.12;66.6
1;6.98;-9.21;0.17;-35.91;-8.12;113.29;19.7;-0.32;6.64;17.87;164.52;394.49;-6.58;-24.51;-6.78;-135.26;-180.9;-310.27;6.46;5.68;3.57;47.25;93.77;217.5
1;1.88;-11.8;-0.97;14.63;10.39;-113.88;28.81;1.61;4.55;58.6;117.67;-52.54;-14.23;-22.08;-5.64;-19.75;-155.96;-243.92;10.2;4.22;2;25.39;65.39;56.81
1;6.96;-9.09;-0.25;-30.74;-15.3;111.77;15.37;-0.09;7.26;24.27;157.91;419.71;-10.09;-27.85;-11.69;-122.49;-149.48;-249.9;6.55;6.02;4.33;42.03;87.27;227.86
1;1.85;-12;-0.62;7.61;8.59;-119.41;24.33;4.53;2.17;45.58;102.88;-57.85;-12.05;-30.98;-6.12;-22.51;-191.91;-261.53;9.06;6.34;1.45;22.55;64.14;64.24
1;7.61;-9.23;-0.33;-16.71;-6.05;121.81;17.92;-3.24;5.87;32.28;141.6;414.39;-8.85;-31.54;-7.46;-53.18;-114.89;-347.67;5.4;6.53;3.55;24.48;64.92;227.36
1;1.96;-11.6;-0.98;5.89;21.22;-114.29;33.97;4.54;4.21;52.12;134.04;-48.19;-17.93;-22.2;-5.68;-31.77;-206.02;-258.15;11.25;4.98;1.79;25.32;71.21;64.09
1;7.45;-9.08;0.22;-41.5;-20.08;115.76;17.4;-1.55;6.88;13.64;106.35;391.8;-0.12;-33.68;-11.61;-118.76;-244.22;-285.15;4.25;6.7;3.91;41.91;83.8;215.32
1;1.45;-12.04;-0.9;15.26;26.72;-116.02;25.94;5.24;9.06;55.17;171.09;-50.51;-15.92;-31.78;-5.28;-14.75;-147.97;-267.23;10.32;6.5;2.46;27.81;67.02;68.24
1;7.65;-9.28;-0.38;-27.37;-26.47;95.97;22.99;-0.13;9.72;36.21;143.88;351.88;-10.75;-34.7;-13.13;-104.76;-192.74;-337.44;6.82;7.25;4.74;40.37;80.26;209.52
1;1.83;-11.13;-0.84;11.43;27;-99.44;26.65;7.72;5.74;74.52;212.01;-30.85;-15.73;-20.36;-5.43;-29.9;-213.96;-234.13;10.58;7.31;2.17;27.92;82.79;69.39
1;6.73;-9.8;-0.14;-24.69;-25.52;109.45;15.29;-2.55;7.98;11.71;99.95;381.09;-7.8;-31.18;-9.88;-82.75;-147.92;-275.32;6.1;5.85;3.68;27.44;67.85;215.98
1;1.68;-12.07;-0.99;8.15;10.76;-118.11;30.44;9.3;8.3;53.5;86.94;-56.13;-15.32;-30.49;-6.72;-32.56;-161.37;-230.12;10.19;7.07;2.68;21.92;59.25;58.27
1;6.87;-9.28;0.33;-39.18;-15.11;107.7;14.95;-1.67;8.53;46.87;176.27;391.59;-8.29;-33.18;-9.03;-133.16;-214.35;-281.59;5.39;6.61;4.05;51.04;100.27;207.79
1;2.04;-11.67;-1.02;9.46;24.73;-112.95;30.49;7.13;3.86;45.36;152.95;-49.6;-15.87;-19.92;-4.75;-21.8;-145.37;-254.47;11.15;6.01;2.28;25.08;72.48;63.42
1;6.55;-9.72;-0.23;-29.36;-24.86;103.36;16.27;-2.56;8.65;36.74;139.63;355.25;-11.34;-35.37;-9.67;-98.09;-226.97;-296.32;6.43;6.41;4.03;41.71;85.63;201.46
1;1.74;-12.31;-0.9;2.09;36.41;-122.54;26.65;9.97;8.83;53.22;145.31;-53.3;-11.14;-27.86;-5.87;-39.96;-144.67;-234.31;9.74;6.89;2.86;24.48;72.6;51.92
1;6.4;-9.05;-0.37;-23.64;-32.67;111.39;16.34;-0.11;10.3;41.93;118.21;371.71;-8.45;-36.37;-12.23;-92.81;-200.39;-249.96;5.78;7.33;4.2;40.16;96.22;205.76
1;1.28;-11.58;-1;2.79;19.03;-118.98;27.63;15.26;8.43;66.52;123.2;-47.17;-16.8;-26.43;-6.75;-53.74;-202.28;-223.79;10.4;7.95;3.34;30.07;74.73;57.91
1;6.44;-10.04;0.02;-22.61;-13.83;117.01;15.5;-1.98;11.01;40.06;140.2;424.67;-11.43;-34.74;-9.13;-94.81;-156.2;-283.35;6.67;7.64;4.17;37.05;77.44;234.5
1;2.14;-11.5;-1.38;7.61;20.39;-117.94;29.68;12.1;5.81;52.95;149.03;-51.79;-17.03;-22.07;-6.67;-42.08;-147.4;-253.73;10.41;7.51;2.33;24.24;58.98;65.81
1;6.36;-9.54;-0.03;-25.65;-17.59;116.73;13.14;-2.25;9.97;30.73;90.52;412.09;-9.13;-35.49;-9.15;-68.59;-218.59;-268.21;5.13;6.97;3.76;27.45;79.08;224.86
1;1.57;-11.67;-1.1;7.02;17.69;-120.72;34.59;15.25;7.93;62.05;184.75;-48.59;-18.02;-28.14;-5.86;-47.75;-222.13;-226.9;11.77;8.62;3.06;26.27;85.81;60.55
1;6.98;-9.64;-0.24;-25.87;-20.29;114.58;18.88;-0.71;9.16;31.36;146;411.49;-9.47;-33.33;-11.07;-91.53;-176.72;-290.8;6.91;7.45;4.6;35.33;90;230.27
1;1.8;-12.1;-1.26;5.86;12.45;-117.38;27.27;11.95;9.01;50.7;91.59;-41.69;-14.68;-27.1;-8.15;-43.21;-202.81;-231.65;9.57;7.75;3.05;25.27;68.19;68.05
1;6.2;-9.22;0.2;-23.16;-24.14;123.94;15.18;-1.9;9.67;29.68;80.78;425.77;-11.53;-33.3;-10;-71.83;-157.98;-248.71;6.42;7.31;4.08;28.48;70.62;226.48
1;1.97;-11.36;-1.4;-1.72;28.98;-116.91;32.43;12.68;2.26;47.46;148.95;-44.59;-20.1;-20.66;-7.44;-50.02;-186.4;-243.59;11.77;7.48;2.71;25.15;81.55;64.84
1;6.38;-9.65;-0.29;-28.78;-26.7;104.39;16.76;-1.01;6.74;43.32;144.28;377.64;-7.13;-33.26;-13.93;-106.2;-216.43;-296.51;5.95;6.66;4.78;40.06;102.25;219.21
1;1.55;-11.89;-0.94;2.32;23.54;-117.98;23.75;10.31;10.55;60.49;168.6;-51.5;-17.16;-30.69;-5.74;-38.36;-184.25;-237.58;9.91;7.09;3.49;25.56;76.57;61.54
1;6.82;-9.58;0.48;-32.8;-21.1;103.01;15.09;0.24;10.8;24.52;128.95;381.87;-11.04;-34.4;-10.62;-113.38;-206.3;-291.85;6.29;7.58;4.57;43.78;87.61;216.83
1;1.9;-11.74;-1.17;5.1;31.12;-119.12;25.68;15.11;8.96;70.13;145.85;-58.02;-11.92;-22.04;-8.6;-50.8;-175.44;-234.02;9.91;8.27;3.26;25.98;74.39;53.8
1;5.62;-8.56;0.02;-35.05;-22.88;112.54;16.76;0.61;5.38;32.39;118.4;415.02;-11.37;-30.47;-8.53;-128.45;-210.09;-226.89;6.39;6.93;3.67;40.18;90.04;216.61
1;2.42;-11.54;-0.85;10.08;7.87;-119.26;35.82;18.56;8.46;56.7;126.23;-49;-14.67;-33.91;-7.66;-35.84;-235.69;-283.15;12.01;8.44;2.73;25.48;88.37;70.88
1;7.01;-10.03;-0.31;-21.13;-22.65;105.49;18.3;-1.07;6.46;37.65;124.37;409.8;-9.13;-35.2;-9.82;-99.32;-124.07;-317.57;6.75;7.84;4.68;43;67.19;232.24
1;1.75;-11.53;-0.89;-1.38;30.58;-112.79;27.62;11.2;5.72;39.25;191.92;-26.69;-15.24;-26.08;-9.09;-50.94;-163.39;-238.74;10.52;7.03;2.85;26.37;71.81;71
1;6.4;-9.85;0.19;-30.21;-30.41;97.84;21.33;-1.55;9.32;26.32;122.6;401.41;-10.8;-33.09;-8.57;-110.93;-140.91;-292.75;7.27;7.43;4.45;42.7;75;228.53
1;2.14;-11.33;-0.87;-0.49;25.03;-111.04;28.6;10.77;4.53;35.44;128.99;-44.29;-12.36;-22.31;-7.72;-50.15;-168.3;-227.38;10.34;6.33;2.4;23.6;65.21;61.31
1;6.71;-10.1;-0.51;-23.47;-23.64;105.51;16.75;-0.03;7.83;53.59;105.34;420.9;-10.03;-35.97;-15.87;-99.12;-188.74;-299.58;5.96;8.79;5.76;42.36;85.47;233.2
1;1.62;-11.87;-0.93;-9.51;37.44;-126.35;33.75;15.74;5.83;66.63;158.69;-40.3;-16.73;-22.21;-6.96;-52.94;-224.56;-238.17;11.75;8.13;2.67;21.39;97.06;63.29
1;6.48;-9.16;-0.27;-17.91;-27.4;111.1;17.3;0.25;4.45;33.08;97.59;409.65;-8.56;-25.76;-8.76;-87.13;-121.61;-339.48;5.92;6.5;3.72;32.96;59.95;232.22
1;2.68;-11.78;-1.02;5.63;13.83;-121.76;29.38;4.75;2.52;36.1;114.9;-51.16;-10.88;-20.49;-7.94;-22.21;-164.04;-255.53;10.04;6.21;2.14;21.91;61.81;74.56
1;6.8;-9.22;0.2;-29.08;-13.92;115.26;15.4;-0.24;7.67;41.86;79.96;434.25;-10.35;-36.04;-15.6;-90.71;-230.99;-268.53;5.6;9.06;4.73;38.81;77.47;236.71
1;2.69;-10.93;-0.93;7.52;14.88;-117.52;30.36;11.61;2.44;61.34;107.09;-60.45;-17.14;-22.31;-7.07;-24.41;-192.1;-269.21;10.69;7.19;2.57;25.52;82.78;59.54
1;6.45;-10.13;0.2;-25.31;-12.18;101.25;14.35;-0.43;9.25;53.99;159.51;428.57;-9.21;-36.33;-12.78;-99.9;-175.25;-312.75;6.25;8.08;4.77;43.4;83.63;232.86
1;2.06;-10.96;-0.74;3.23;14.72;-114.39;29.6;17.59;3.85;68.25;86.26;-29.66;-17.66;-20.03;-7.32;-50.13;-185.9;-240.25;11.12;7.71;2.9;25.58;68.56;65.16
1;6.45;-9.42;0.31;-35.19;-8.16;106.36;17.31;-0.79;9.61;53.49;185.4;420.63;-7.23;-35.33;-8.18;-135.19;-210.99;-307.65;6.6;8.02;4.28;53.36;92.86;229.83
1;2.63;-11.13;-1.02;9.56;9.27;-108.07;35.84;15.01;8.18;66.24;124.91;-30.52;-25.08;-26.63;-10.26;-43.04;-190.98;-247.5;13.1;7.8;3.15;26.7;87.51;67.17
1;6.25;-9.35;-0.5;-29.43;-20.7;93.83;19.21;-0.35;7;42.17;182.8;404.27;-11.08;-20.38;-8.52;-142.95;-140.06;-288.64;7.7;6.56;4.33;50.39;97.49;227.87
1;2.03;-12.02;-0.64;5.08;11.93;-115.37;23.25;-2.13;3.38;52.79;99.65;-33.92;-22.58;-25.03;-3.89;-25.6;-155.67;-249.89;10.69;5.16;1.82;24.69;74.15;75.94
1;7.26;-9.11;0.6;-42.86;-11.78;100.76;18.19;-2.05;6.49;20.8;105.04;401.35;-1.61;-32.95;-12.79;-117.13;-173.29;-329.74;5.14;7.33;4.38;48.48;67.18;228.92
1;2.35;-12.12;-0.66;11.21;14.5;-115.47;23.54;2.18;5.79;50.94;105.54;-32.97;-18.15;-27.42;-4.39;-22.29;-115.96;-264.07;11.26;6.33;2.25;23.13;60.17;74.42
1;6.6;-9.53;0.41;-31.04;-13.65;102.79;15.41;0.99;7.79;32.84;116.47;411.3;-9.34;-33.03;-9.28;-123.04;-205.44;-312.39;6.33;8.09;4.2;49.19;83.18;236.39
1;1.83;-11.61;-1.41;8.99;41.23;-116.84;32.85;10.47;3.99;56.8;157.54;-38.57;-17.59;-20.63;-5.68;-28.79;-156.38;-243.56;11.49;6.17;2.47;26.14;77.43;64.83
1;6.85;-8.95;0.01;-19.37;-27.93;113.44;15.71;-0.35;7.21;35.28;71.44;431.73;-11.55;-34.14;-8.4;-84.72;-138.27;-273.88;6.07;7.48;4.24;37.28;59.26;236.98
1;2.26;-11.6;-1.4;3.16;13.84;-127.01;37.45;16.91;5.36;54.21;105.78;-57.37;-17.35;-29.79;-9.39;-44.91;-275.09;-248.86;12.36;7.63;2.78;24.48;91.14;70.59
1;7.29;-9.34;0.43;-23.73;-14.69;114.11;19.22;-2.92;9.03;50.53;83.76;384.51;-12.33;-36.55;-10.06;-87.17;-130.58;-299.07;5.55;7.53;4.03;40.08;62.24;224.94
1;1.58;-11.49;-1.59;3.2;14.86;-117.15;31.89;15.2;6.77;60.44;123.87;-31.12;-18.27;-25.47;-9.35;-44.86;-222.18;-237.68;11.41;8.19;3.05;25.18;74.47;70.86
1;6.77;-9.68;0.67;-30.5;-15.71;118.38;19.33;-1.95;9.58;37.57;104.96;403.07;-11.13;-33.24;-5.88;-98.3;-162.01;-319.04;5.92;6.18;3.66;42.22;65.51;226.36
1;1.94;-11.75;-1.1;3.67;19.46;-124.17;36.55;14.4;6.42;50.59;114.99;-20.74;-15.44;-23.87;-10.11;-66.2;-197.35;-228.85;12.38;8.37;3.22;25.08;79.16;72
1;6.8;-8.95;0.16;-26;-24.38;95.76;15.68;-1.89;12.88;57.13;100.74;380.78;-8.25;-36.33;-17.8;-105.47;-243.86;-272.68;5.27;7.14;5.01;52.69;89.25;209.92
1;1.37;-11.68;-1.68;1.58;10.09;-124.19;29.55;20.47;5.88;82.95;115.72;-33.68;-22.25;-21.03;-8.19;-62.05;-216.73;-241.81;11.1;8.69;2.98;28.88;75.21;66.42
1;7.31;-8.78;0.9;-24.79;-11.67;139.9;22.47;0.05;9.38;71.22;109.83;439.53;-9.62;-37.07;-12.42;-100.71;-158.57;-259.67;7.22;7.99;4.46;41.94;78.09;234.49
1;2.69;-10.12;-1.03;5.21;5.11;-105.86;29;22.89;3.68;71.14;95.36;-35.9;-23.68;-22.3;-8.36;-51.15;-202.33;-245.46;11.74;9.45;2.63;31.04;79.61;66.63
1;5.51;-9.67;-0.07;-37.96;6.68;90.16;14.14;0.33;8.14;54.55;178.64;408.7;-10.02;-32.14;-12.66;-143.69;-192.6;-319.9;5.82;7.44;4.8;52.87;86.79;229.64
1;1.79;-11.8;-0.83;14.81;10.77;-117.49;36.55;14.3;5.1;69.72;174.9;-42.91;-19.11;-29.6;-6.59;-31.95;-263.29;-238.93;12.04;7.42;3.09;25.6;94.97;65.58
1;7.05;-8.82;0.37;-33.54;-8.78;111.87;18.38;2.64;6.34;48.08;129.03;408.47;-9.97;-30.02;-8.73;-112.37;-176.23;-267.91;6.28;6.68;4.25;53.52;90.79;227.14
1;2.13;-11.6;-0.79;12.16;3.6;-106.62;32.02;8.68;7.15;58.39;93.38;-44.18;-20.41;-27.21;-3.46;-26.11;-236.24;-224.12;12.12;6.22;1.81;26.23;83.55;59.48
1;6.13;-9.76;-0.56;-19.26;-24.32;78.64;19.89;-0.87;6.8;59.54;204.61;415.89;-9.59;-30.19;-13.45;-91.83;-151.49;-320.3;6.44;6.66;5.08;45.64;84.72;225.53
1;1.66;-12.08;-1.2;-6.87;27.36;-115.68;29.72;10.05;6.19;47.6;150.38;-47.03;-20.31;-19.28;-6.83;-56.46;-234.06;-233.34;11.57;6.18;2.59;25.62;84.12;61.68
1;6.93;-8.85;0.89;-34.05;-7.84;127.94;16.17;0.46;9.88;43.53;89.61;421.86;-14.96;-36.28;-8.43;-100.43;-126.87;-274.41;5.49;7.72;4.58;43.21;56.81;227.13
1;1.96;-11.75;-1.53;4.93;23.72;-122.01;38.06;13.79;5.29;49.89;111.8;-35.33;-16.7;-26.91;-9.49;-45.85;-243.48;-250.43;12.87;7.87;2.55;24.03;81.83;76.81
1;6.66;-8.69;-0.23;-10.48;-20.97;96.22;21.11;-0.01;6.55;52.48;155.72;381.58;-13.38;-27.35;-5.4;-83.54;-212.66;-329.16;7.5;6.41;3.46;36.84;101.17;221.18
1;3.09;-11.32;-0.91;2.65;9.08;-115.03;33.07;7.39;3.29;40.86;114;-40.63;-17.51;-19.33;-7.77;-24.83;-198.83;-247.47;11.17;5.82;1.95;18.55;79.49;73.81
1;6.61;-10.02;0.19;-26.11;-5.51;113.66;15.5;-1.97;7.33;30.04;108.89;453.34;-12.88;-35.07;-11.74;-89.82;-133.58;-285.56;5.84;7.85;4.83;40.91;65.45;244.78
1;1.96;-11.23;-1.49;7.35;21.88;-117.26;35.18;15.14;2.67;53.59;124.71;-26.7;-23.24;-19.61;-5.79;-33.29;-200.2;-272.04;13.23;7.66;1.94;24.37;81.99;76.5
1;5.94;-9.48;0.27;-26.16;-16.48;106.54;24.21;0.69;7.75;51.92;167.57;430.21;-16.64;-35.41;-6.86;-126.11;-153.69;-281.83;9.07;7.88;4.41;49.77;92.04;237.66
1;2.19;-11.51;-1.47;2.43;29.34;-114.53;35.75;15.27;4.65;45.98;150.93;-29.9;-18.67;-28.21;-13.12;-44.55;-252.65;-234.66;12.79;8.65;3.94;24.34;99.56;70.69
1;6.2;-9.19;0.29;-37.24;-44.03;102.31;18.46;0.48;8.34;40.7;199.13;421.6;-9.46;-30.13;-11.2;-156.33;-207.44;-249.7;7.51;6;5.2;55.52;109.07;228.51
1;1.76;-11.93;-1.15;-3.27;25.88;-116.18;31.15;17.39;6.43;41.15;145.03;-32.4;-19.69;-31.53;-8.36;-51.76;-196.58;-239.95;11.34;8.56;3.23;25.39;80.92;71.22
1;6.56;-9.7;0.01;-26.28;-31.74;115.71;19.28;-0.86;7.62;37.83;100.93;440.82;-8.41;-33.12;-14.52;-108.86;-175.98;-317.01;7.02;7.32;5.25;44.78;72.17;238.81
1;2.78;-11.05;-1.08;-1.3;39.58;-115.24;32.19;17.08;3.11;62.23;231.5;-10.36;-13.68;-21.14;-7.01;-30.98;-152.51;-247.39;11.34;8.13;3.23;21.72;86.88;77.95
1;5.56;-9.4;0.08;-30.13;-25.67;94.88;18.12;0.82;8.87;39.45;219.49;396.9;-12.84;-35.03;-9;-139.34;-249.99;-301.41;7.47;6.74;4.3;51.79;111.78;225.93
1;0.91;-11.17;-1.48;13.71;19.12;-108.96;33.55;14.71;10;68.72;140.42;39.06;-22.75;-30.47;-8.45;-38.06;-186.73;-241.25;13.55;8.46;3.45;26.13;85.25;91.03
1;5.66;-9.66;0.59;-36.41;-22.77;96.18;16.45;-1.38;11.17;49.34;154.69;439.52;-12.47;-34.7;-9.46;-132.96;-209.56;-293.26;6.64;8.03;4.25;52.32;91.36;243.46
1;2;-11.2;-1.47;4.54;23.51;-120.62;38;21.85;4.14;70.14;166.24;-21.58;-19.9;-21.56;-12.3;-59.83;-245.84;-246.02;13.12;8.33;3.22;25.36;93.92;76.74
1;5.48;-9.5;0.16;-31.11;-15.1;98.5;14.78;1.37;6.89;42.67;134.23;409.83;-19.02;-35.02;-13.8;-110.01;-161.97;-333.42;6.11;7.92;4.51;47.78;75.49;235.88
1;2.38;-10.74;-1.37;6.81;11.58;-111.77;40.18;25.67;3.98;78.53;195.5;-16.19;-16.59;-20.12;-10.3;-58.46;-335.81;-275.49;13.8;9.19;2.76;26.92;107.39;73.35
1;6.26;-9.43;-0.59;-21.86;-25.14;100.55;18.27;0.76;7.07;56.26;177.15;423.32;-11.09;-36.15;-15.55;-115.72;-203.05;-284.31;8.44;8.07;5.25;47.78;97.96;229.68
1;1.62;-11.41;-1.05;-4.53;25.82;-111.47;36.2;19.61;5.16;56.56;173.5;-18.16;-20.67;-25;-9.02;-60.82;-242.56;-236.56;12.52;8.83;3.93;29.59;87.83;72.9
1;6.2;-9.95;0.17;-29.24;-11.19;105.87;19.16;2.3;9.36;48.4;155.39;430.57;-13.62;-32.64;-11.8;-147.64;-180.32;-330.45;8.04;8.55;5.02;53.89;94.01;240.81
1;1.73;-10.63;-1.42;10.23;16.59;-108.94;37.06;21.72;2.45;86.61;188.57;-27.35;-16.2;-20.24;-11.68;-52.32;-255.37;-225.34;12.45;9.09;2.93;26.46;90.68;72.03
1;6.81;-9.63;-0.03;-30.27;-18;108.41;19.55;1.84;8.98;48.08;148.15;423.81;-14.44;-36.24;-12.48;-120.77;-116.99;-302.92;7.27;8.53;5.22;50.31;70.87;233.75
1;1.64;-11.11;-1.41;3.96;31.47;-115.92;41.17;23.7;6.75;66.67;161.83;-25.94;-19.55;-27.41;-12.57;-64.77;-298.17;-266.07;13.2;10.52;3.9;26.66;103.63;71.98
1;5.81;-9.64;-0.01;-37.34;-30.51;103.15;14.76;-0.92;5.64;38.41;96.47;399.52;-13.74;-33.99;-14.62;-111.92;-164.04;-293.91;6.7;7.52;4.47;49.66;67.16;223.8
1;1.55;-10.83;-0.97;5.43;14.29;-118.17;41.47;20.31;5.31;67.11;131.84;-31.27;-17.88;-23.98;-7.95;-39.36;-301.15;-269.3;13.48;8.79;3.44;27.62;98.6;78.12
1;6.07;-9.79;0.04;-30.22;-7.72;109.13;20.98;2.43;7.71;35.62;155.35;422.58;-20.32;-33.21;-9.27;-119.88;-223.91;-306.11;7.5;8.26;4.37;43.29;106.22;236.73
1;1.35;-11.67;-1.62;1.99;-2.22;-122.96;41.84;17.44;3.18;51.19;139.58;-44.19;-20.68;-22.72;-10.68;-59.99;-306.76;-251.26;13.42;7.98;2.85;26.69;102.07;75.31
1;8.41;-8.14;-0.39;-21.37;-2.54;137.94;18.29;2.61;4.68;45.14;114.86;460.09;-1.37;-33.78;-16.52;-94.68;-163.77;-297.66;5.29;8.86;5.14;38.7;74.98;251.98
1;1.51;-11.51;-1.2;-0.19;30.23;-115.56;37.5;18.41;5.31;64.32;130.14;-30.13;-19.29;-33.44;-7.12;-58.43;-311.97;-252.1;12.68;8.53;2.91;24.56;95.99;71.08
1;5.56;-9.06;0.72;-39.46;-10.3;106.97;13.95;0.67;7.8;47.2;124.4;432.1;-8.99;-27.69;-7.66;-152.45;-214.15;-302.28;5.88;6.62;3.56;53.99;92.36;234.28
1;1.44;-11.77;-1.34;21.01;3.08;-116.12;37.38;14.13;7.03;67.31;93.74;-32.62;-15.24;-33.75;-6.8;-25.66;-216.48;-265.1;12.08;8.58;3;24.82;83.91;79.76
1;7.39;-9.56;0.06;-34.25;-21.82;113.82;15.13;0.12;8.33;29.51;83.03;447.31;-9.27;-36.21;-15.99;-115.89;-166.99;-311.26;5.4;7.63;5.32;47.92;65.82;238.87
1;1.66;-11.36;-0.68;7.15;23.06;-110.18;34.17;12.28;5.95;52.8;164.84;-25.28;-16.17;-25.68;-3.64;-34.83;-253.1;-246.84;12.15;7.55;1.92;28.1;84.6;78.16
1;7.44;-9.57;-0.51;-24.04;-24.22;98.23;29.72;0.05;7.19;51;174.1;419.31;-10.36;-22.67;-8.38;-134.63;-222.4;-341.71;9.33;6.88;4.49;49.69;109.89;235.9
1;1.31;-11.56;-0.66;1.65;10.37;-106.16;34.35;0.34;4.95;40.6;135.6;-13.14;-17.47;-21.96;-5.96;-31.86;-224.97;-247.35;12.21;5.61;2.2;21.66;82.85;79.27
1;6.44;-9.71;0.43;-36.43;-13.4;101.81;14.84;-1.24;7.71;37.59;158.14;431.24;-11.58;-33.88;-11.13;-118.38;-144.05;-279.02;5.7;8.26;4.67;46.86;83.12;235.26
1;1.84;-11;-1.34;2.07;27.44;-106.67;36.57;14.43;1.74;39.14;119.87;-11.07;-16.09;-20.63;-8.13;-36.13;-226.12;-254.67;12.55;8.35;2.39;20.17;76.35;79.43
1;6.69;-9.42;0.35;-25;-18.35;107.75;14.47;-0.47;10.08;53.93;52.63;409.54;-12.51;-34.17;-10.12;-90.52;-134.96;-329.1;5.99;7.96;4.2;44.17;45.31;229.59
1;2.68;-11.54;-1.33;5.11;16.68;-120.96;35.74;18.87;4.47;62.5;202.25;-39.64;-16.83;-21.29;-10.99;-50.8;-239.97;-242.2;12.08;7.84;3;28.45;86.9;71.6
1;5.95;-9.55;0.62;-33.12;-26.91;102.25;16.26;1;9;47.92;182.39;435.54;-13.21;-36.27;-14.92;-124.27;-172.27;-261.56;6.21;8.1;5.02;48.04;93.47;238.74
1;1.57;-10.95;-1.74;1.21;29.49;-109.45;35.73;17.77;4.81;56.88;132.16;-9.71;-20.61;-21.76;-9.14;-55.59;-224.47;-242.29;12.91;8.1;3.46;28.99;86.54;78.47
1;6.94;-9.4;0.4;-34.32;-18.7;111.29;16.54;-0.07;12.59;33.55;102.55;436.9;-10.17;-36.49;-12.22;-104.67;-219.11;-312.23;5.67;7.55;5.41;44.58;76.23;237.52
1;1.27;-11.13;-1.3;12.95;15.41;-111.28;41.03;22.51;9.75;92.49;134.03;-25.74;-20.12;-24.58;-8.79;-68.17;-275.78;-241.59;13.65;10;3.18;33.61;90.29;75.91
1;6.16;-9.35;0.16;-35.95;-13.43;96.85;19.61;1.04;7.82;35.34;138.2;428.18;-8.51;-33.62;-12.17;-141.21;-233.62;-275.07;7.33;7.3;4.5;52.61;100.17;234.01
1;1.55;-11.78;-1.03;8.28;16.4;-118.02;36.69;22.38;10.12;82.55;154.65;-17.26;-21.32;-32.25;-6.66;-58.5;-265.99;-245.77;13.39;9.71;3.51;29.04;101.08;71.6
1;5.81;-9.76;0.09;-33.77;-27.54;99.28;17.92;1.62;7.96;38.3;165.61;417.75;-9.18;-33.63;-11.01;-134.16;-201.56;-300.26;7.79;7.8;4.87;56.6;100.44;233.37
1;2.18;-11.14;-0.99;0.48;18.04;-119.32;34.59;17.55;4.1;43.91;169.37;-19.22;-20.08;-20.46;-7.28;-43.29;-198.6;-238.83;12.43;7.88;2.48;23.6;80.95;75.57
1;6.66;-8.73;0.68;-40.65;-12.11;105.74;17.15;1.3;7.9;37.52;142.87;418.05;-8.02;-30.64;-10.24;-146.1;-159.35;-251.2;5.85;6.92;4.42;55.63;82.33;225.83
1;1.03;-11.47;-1.07;6.79;4.9;-106.6;31.8;14.26;6.78;66.78;123.68;8.73;-24.69;-32.29;-5.09;-42.25;-187.76;-232.51;13.86;8.44;2.72;28.93;86.58;82.55
1;6.44;-9.49;-0.25;-32.65;-5.28;92.27;17.97;1.61;8.43;24.57;118.13;453;-6.92;-35.54;-16.93;-122.8;-168.49;-311.04;6.49;8.21;5.58;48.85;86.45;251
1;2.14;-10.32;-0.65;8.96;5.04;-102.34;39.33;17.32;6.18;57.04;83.13;-3.16;-16.11;-31.4;-6.48;-40.1;-266.57;-255.58;12.47;8.41;2.7;28.96;78.81;85.08
1;6.64;-10.7;-0.23;-24.05;-5.51;96.58;16.13;-2.03;8.46;30.81;114.73;450.88;-8.49;-37.02;-15.54;-84.32;-192.59;-328.82;6.31;8.24;5.44;36.74;83.02;251.21
1;1.15;-11.29;-1.11;7.85;24.66;-117.89;38.59;19.01;7.01;82.04;169.3;-9.19;-20.3;-25.84;-7.78;-57.24;-283.62;-246.91;13.26;9.01;3.83;31.68;95.41;79.03
1;7.09;-9.29;0.5;-33.61;-33.32;105.05;16.98;-0.83;7.75;47.53;158.99;399.96;-10.53;-35.62;-12.2;-134.92;-164.12;-293.47;6.84;7.78;5.24;59.38;85.51;227.6
1;1.41;-11.31;-1.04;3.09;22.32;-111.35;33.71;16.22;7.07;63.94;147.78;-3.05;-21.09;-27.39;-9.91;-56.66;-242.19;-223.75;12.41;9.08;3.53;29.36;85.34;78.16
1;7.15;-9.14;0.95;-32.52;-23.02;99.89;19.28;-1.84;9.18;36.97;92.67;407.26;-12.6;-33.16;-8.43;-132.81;-143.74;-289.11;6.83;7.9;4.69;55.58;62.73;229.04
1;1.82;-11.53;-1.01;2.89;14.79;-110.72;32.18;12.3;4.11;54.1;181.71;-22.09;-20.97;-20.19;-6.77;-39.27;-205.91;-229.78;12.03;6.64;2.52;21.86;78.51;73.32
1;5.82;-9.31;0.77;-34.2;-12.38;100.02;16.02;1.91;9.01;38.82;162.4;426.97;-12.05;-31.84;-7.26;-142.08;-161.53;-286.86;7.14;7.16;4.59;57.21;95.4;233.25
1;2.15;-11.8;-1.07;7.15;16.14;-120.16;36.91;11.65;4.39;43.78;148.81;-42.89;-20.03;-27.73;-9.19;-37.53;-222.59;-240.63;12.55;6.57;2.41;22.37;83.99;67.45
1;6.96;-9.3;0.06;-17.27;-18.81;109.14;24.29;-0.13;7.57;43.45;136.99;415.79;-16.68;-33.39;-8.36;-98.13;-111.05;-322.02;8.49;7.84;4.67;42.88;84.03;232.59
1;2.32;-10.7;-1.49;-1.11;25.5;-105.13;37.34;20.24;3.82;34.14;138.13;-26.25;-15.74;-21.53;-14.58;-63.39;-226.4;-238.39;12.89;8.7;3.65;26.43;90.02;75.65
1;6.09;-9.68;0.55;-34.99;-6.52;100.9;14.96;-1.7;11.07;32.27;118.9;412.61;-16.2;-35.55;-10.13;-112.75;-164.96;-325.68;6.32;7.45;4.29;43.52;94.39;227.92
1;2.02;-10.96;-1.1;14.52;5.74;-118.72;38.65;26.88;7.98;87.01;137.28;-27.38;-20.92;-23.57;-12.14;-43.95;-272.68;-271.77;13.16;10.16;3.15;28.87;94.79;85.25
1;7.18;-8.93;0.28;-38.34;-13.23;116.69;21.12;-0.62;7.15;19.95;129.13;403.56;-7.79;-35.71;-11.14;-101.62;-170.86;-301.08;6.14;7.67;4.24;41.42;84.71;228.3
1;0.92;-11.65;-1.08;6.97;18.57;-121.66;40.9;19.85;9.7;61.45;146.6;-36.54;-22.08;-32.33;-11.05;-66.31;-318.43;-241.66;13.54;9.35;3.57;27.18;98.55;73.44
1;6.15;-9.69;0.15;-22.85;-17.14;103.47;20.27;0.8;8.77;47.45;137.63;443.87;-14.4;-36.8;-10.36;-110.73;-185.3;-267.46;7.63;8.7;4.69;44.21;99.94;243.77
1;2.07;-11.49;-1.87;1.01;14.74;-114.85;39.27;19.68;3.44;43.6;131.83;-29.88;-18.29;-24.24;-9.48;-51.18;-260.44;-254.16;13.42;9.28;3.11;22.03;85.75;74.7
1;7.21;-9.09;1.06;-33.98;2.86;124.44;18.89;2.73;12.15;30.25;172.62;446.21;-12.36;-34.35;-8.14;-124.99;-134;-334.44;6.96;8.51;4.7;48.58;84.84;245.1
1;1.82;-11.31;-1.37;12.56;14.31;-115.35;38.55;23.91;4.99;71.19;184.32;-4.93;-23.84;-21.16;-16.16;-72.91;-265.25;-246.12;14.1;9.66;4.35;26.85;92.13;86.81
1;5.73;-9.18;0;-33.42;-19.75;96.3;20.67;3.96;7.51;59.12;246.66;408.85;-11.92;-33.47;-9.45;-156.93;-191.37;-306;7.31;7.56;4.44;62.09;110.64;232.13
1;2.15;-11.63;-1;3.49;14.9;-124.71;38.37;19.56;7.34;58.15;149.19;-13.71;-17.04;-21.47;-10.87;-54.28;-251.69;-238.48;12.73;8.42;3.96;23.94;93.02;76.04
1;5.45;-8.56;0.94;-36.64;-14.03;97.43;14.48;9.65;8.23;53.3;131.91;418.49;-16.98;-33.9;-9.08;-117.78;-256.47;-254.83;6.44;7.99;3.71;52.41;106.79;233.71
1;2.41;-11.48;-1.19;13.69;35.03;-107.78;39.6;14.87;2.57;47.87;173.92;-42.35;-18.26;-18.93;-4.84;-29.21;-211.73;-232.13;12.67;6.14;2.01;21.38;72.78;60.36
1;5.96;-9.69;0.44;-28.08;-16.06;100.92;14.37;0.5;10.65;45.98;139.23;411.41;-18.78;-34.26;-8.74;-108.08;-199.38;-290.44;7.85;7.66;4.05;44.98;95.59;224.22
1;1.65;-11.63;-1.76;12.64;15.59;-125.02;39.35;20.03;4.74;53.54;140.68;-25.39;-17.78;-22.13;-12.99;-50.32;-225.71;-240.58;13.63;7.79;3.32;24.26;88.52;77.75
1;6.62;-8.79;0.25;-34.2;-23.17;123.2;18.42;2.41;9.28;26.31;137.08;439.95;-12.4;-34.63;-11.69;-129.58;-189.35;-323.17;6.92;7.89;4.78;46.1;96.54;242.35
1;2.16;-10.89;-1.24;8.01;21.79;-117.72;38.66;19.6;8.08;44.66;124.98;-35.78;-16.15;-25.98;-8.6;-51.66;-240.97;-273.14;12.83;8.35;2.97;26.49;88.34;80.43
1;7.52;-9.49;0.41;-28.22;-17.87;107.14;19.82;-1.98;7.63;34.93;83.77;420.39;-11.86;-35.76;-9.23;-108.34;-149.79;-315.84;7.55;8.23;4.64;46.15;62.51;235.41
1;1.65;-11.82;-1.48;4.42;22.3;-117.6;38.67;20.25;5.44;53.01;191.06;-27.63;-22.74;-26.34;-11.71;-52.12;-227.08;-242.93;13.63;9.7;3.78;25.01;86.36;74.99
1;5.92;-9.28;1.59;-39.59;-25.86;94.82;18.98;-0.33;9.63;76.82;178.74;413.43;-12.41;-35.78;-10.87;-149.9;-174.99;-275.6;6.91;8.32;4.73;66.87;79.71;237.5
1;1.69;-11.75;-1.8;0.64;40.05;-121.49;38.23;25.97;4.17;41.97;206.85;-20.71;-18.25;-22.48;-9.83;-64.61;-231.11;-225.59;13.59;10.09;2.86;22.69;91.53;69.43
1;6.65;-9.43;0.75;-25.65;-39.2;123.03;26.49;1.39;10.1;37.22;126.71;444.96;-19.35;-34.29;-9.39;-118.99;-205.57;-287.77;9.95;8.47;5.15;48.36;84.15;243.82
1;2.56;-10.74;-1.34;-1.63;16.99;-112.14;40.09;26.51;5.16;50.56;121.18;-11.09;-24.65;-23.89;-12.95;-72.59;-244.82;-265.87;15.13;10.24;3.69;29.53;92.12;79.99
1;5.8;-9.75;0.34;-34.14;-10.45;82.14;15.4;0.3;9.6;54.95;129.65;433.24;-13.81;-32.37;-10.37;-124.63;-256.5;-297.64;6.46;7.98;4.77;56.48;85.84;241.22
1;0.77;-11.97;-2.04;11.67;32.41;-126.91;39.92;22.52;6.48;71.12;132.84;-32.66;-20.91;-23.86;-10.1;-60.61;-247.87;-223.63;13.57;8.84;3.75;31.59;97.49;66.91
1;8.61;-8.31;0.27;-22.14;-29.77;150.89;17.55;-0.48;7.16;48.33;68.56;441.99;-13.35;-33.26;-6.85;-91.46;-147.75;-292.38;6.03;6.66;3.16;40.88;46.53;229.99
1;2.2;-11.66;-0.97;0.2;12.1;-113.57;37.32;19.53;7.59;48.23;126.87;-25.64;-24.35;-30.96;-9.37;-53.71;-229.4;-251.28;14.29;9.72;3.16;24.73;84.97;78.23
1;5.84;-9.94;0.14;-25.11;-7.32;77.62;16.16;0.1;9.21;45.68;178.36;433.79;-12.3;-34.47;-9.59;-97.74;-178.24;-348.08;6.46;7.77;4.52;42.41;84.32;245.64
1;2.32;-11.8;-1.51;5.97;24.89;-128.05;38.06;19.65;3.97;69.23;200.99;-31.23;-21.53;-22.93;-10.39;-56.62;-227.99;-247.78;12.87;8.32;3.04;25.97;100.7;78.93
1;7.27;-8.09;0.61;-40.38;-23.35;144.04;20.58;1.69;8.86;17.17;114.95;442.85;-9.22;-35.18;-8.12;-115.08;-218.06;-277.09;6.54;7.08;3.51;40.23;101.25;228.14
1;1.89;-11.78;-1.26;7.99;23.22;-123.36;38.51;14.37;6.74;43.2;145.75;-38.04;-20.4;-26.22;-7.5;-38.51;-207.06;-251.75;13.67;7.82;2.81;25.73;83.7;77.38
1;6.24;-9.57;0.92;-28.84;3.52;93.69;28.79;-1;9.46;74.69;187.3;413.85;-20.07;-36.12;-7.28;-112.49;-221.01;-338.58;9.02;8.72;4.32;59.25;102.94;242.46
1;2.28;-11.09;-1.81;17.93;17.36;-115.16;41.1;18.97;2.31;62.11;159.39;-23.34;-20.4;-21.11;-10.45;-33.42;-241.98;-246.62;13.81;8.23;2.6;22.82;88;77.96
1;6.79;-9.23;0.69;-37.8;-34.35;111.32;18.84;0.91;9.41;23.31;64.59;437.56;-12.02;-36.46;-11.61;-135.01;-192.73;-272.22;7.11;8.73;4.89;50.34;56.68;244.51
1;1.64;-11.7;-1.51;6.43;26.33;-121.18;37.2;23.56;6.21;73.94;204.05;-14.62;-28.01;-22.85;-7.52;-57.13;-249.13;-253.53;14.7;9.37;3;26.67;103.13;80.09
1;6.55;-9.41;0.15;-29.96;-34.03;109.25;16.88;0.27;10.37;19.4;86.17;434.02;-12.19;-34.97;-8.21;-114.99;-121.9;-316.28;7.51;8.44;4.56;43.06;51.32;249.82
1;1.33;-12.11;-1.42;1.35;19.16;-128.06;37.1;19.62;5.68;53.6;122.79;-23.94;-25.71;-24.7;-11.57;-63.97;-247.42;-255.57;14.39;9;3.72;30.15;93.24;83.48
1;5.98;-8.95;1.31;-39.71;-8.15;98.1;15.27;5.22;11.84;61;149.46;452.47;-12.85;-35.85;-9.74;-125.97;-226.02;-282.05;6.02;8.57;4.25;56.02;92.25;253.31
1;2.25;-11.62;-1.36;18.1;11.12;-119.08;36.91;22.11;1.31;47.67;147.1;-26.67;-22.32;-19.25;-7.03;-39.3;-186.8;-245.26;13.65;8.15;1.71;21.65;83.24;75.93
1;6.15;-9.04;0.4;-30.04;-10.02;112.9;16.51;1.14;12.17;86.32;79.64;447.82;-19.66;-34.35;-7.95;-113.9;-194.22;-285.32;8.14;8.37;4.12;52.24;62.69;254.4
1;2.53;-10.77;-1.57;1.7;11.21;-120.85;39.54;28.73;3.26;56.2;141;-12.76;-21.67;-21.83;-9.96;-73.62;-249.61;-246.3;14.6;10.36;2.96;25.21;92.73;77.27
1;5.81;-10.04;-0.14;-15.81;-12.08;112.06;23.55;2.41;11.17;49.66;115.51;471.14;-21.4;-34.39;-7.97;-112.26;-182.91;-305.73;10.06;8.74;4.77;49.22;60.04;266.04
1;2.59;-10.94;-1.71;-2.83;19.34;-125.82;39.77;29.45;6.62;63.44;151.4;-21.6;-21.23;-23.24;-15.37;-83.36;-274.07;-266.34;14.66;11.18;4.12;32.5;101.28;84.62
1;6.41;-9.75;0.37;-31.62;-9.13;116.61;18.18;0.51;10.48;45.8;198.39;460.05;-8.92;-35.94;-9.62;-123.57;-199.2;-329.68;7.43;7.66;4.57;49.64;107.46;251.68
1;2.02;-11.49;-1.1;7.43;12.14;-128.97;36.82;18.87;5.78;49.81;162.92;-30.25;-19.1;-21.34;-8;-36.17;-185.49;-281.08;13.12;8.91;2.77;18.05;79.27;91.46
1;7.18;-9.56;0.93;-45.27;-18.6;116.45;20.32;3.38;10.34;40;139.97;438.18;-9.94;-35.6;-13.3;-151.56;-241.81;-337.66;7.22;9.19;5.04;60.33;95.65;253.58
1;1.57;-11.48;-1.17;4.68;28.17;-125.34;38.86;24.54;5.55;86.98;199.53;-16.6;-28.34;-23.67;-11.13;-56.43;-230.86;-249.27;14.77;10.55;3.72;29.47;93.59;86.69
1;6.37;-9.2;0.9;-36.93;-32.93;91.1;19.57;9.16;9.42;67.44;117.85;435.73;-10.66;-33.75;-9.26;-137.77;-260.08;-291.8;7.8;8.91;4.45;55.37;95.55;253.67
1;0.79;-12.37;-1.93;4.71;30.04;-124.73;32.38;23.06;2.99;45.5;170.39;-13.3;-30.31;-22.14;-8.47;-42.23;-147.37;-249.73;15.06;9.02;2.55;19.25;73.61;82.85
1;7.41;-9.51;0.35;-28.16;-23.82;128.15;22.84;5.34;9.38;23.84;109.79;471.8;-11.12;-32.17;-11.04;-137.42;-183.46;-304.01;9.01;9.21;4.71;53.35;76.96;265.61
1;2.36;-11.05;-1.18;2.82;10.27;-113.2;36.25;19.93;3.08;50.79;102.49;-21.86;-23.56;-22.19;-7.78;-53.87;-180.43;-258.22;14.3;9.29;2.44;24.94;71.89;75.53
1;6.08;-10.51;0.16;-28.23;-12.43;76.5;22.5;2.62;9.18;44.57;196.59;432.04;-17.95;-35.28;-11.23;-131.35;-224.57;-346.83;9.2;8.45;5.29;53.15;99.2;254.03
1;1.59;-11.99;-1.69;1.76;26.51;-128.81;38.31;21.18;3.65;58.44;155.58;-21.1;-24.9;-24.82;-11.8;-59.59;-248.66;-249.15;13.37;9.51;3.47;26.58;93.73;84.96
1;8.1;-8.32;1.58;-41.9;-27.24;147.94;15.94;-0.27;10;41.84;123.86;441.33;-12.23;-34.38;-7.3;-121.68;-137.45;-314.4;5.68;7.5;3.77;50.59;76.77;238.14
1;1.13;-12.7;-1.54;9.24;28.49;-129.25;38.57;19.42;5.22;57.39;205.9;-35.98;-29.72;-21.82;-8.37;-49.57;-223.64;-246.29;14.95;8.6;3.16;26.3;95.53;74.22
1;6.63;-9;0.84;-38.78;-22.12;115.07;16.82;0;11.6;67.69;79.21;447.47;-10.68;-35.57;-11.95;-100.37;-236.36;-303.92;5.96;7.79;4.58;43.18;82.82;247.79
1;1.5;-11.95;-1.55;8.36;19.42;-130.48;40.53;23.22;4.31;83.9;188.42;-37.08;-25.77;-23.42;-6.98;-42.82;-240.69;-269.36;15.1;10.32;3;27.14;104.24;81.84
1;6.82;-9.54;0.66;-27.02;-20.15;123.86;18.08;-0.11;12.73;34.02;106.7;448.28;-9.35;-34.8;-9.37;-97.57;-239.31;-300.01;6.75;7.14;3.84;36.15;95.1;247.33
1;1.87;-11.39;-1.41;8.15;22.81;-125.84;37.56;24.84;6.08;75.98;128.59;-26.07;-26.29;-23.32;-9.46;-64.2;-198.57;-270.87;14.2;10.1;2.97;30.54;85.4;84.43
1;6.42;-10.16;0.61;-36.79;-19.87;107.38;17.8;-0.69;11.35;45.92;126.32;445.01;-11.64;-31.91;-9.11;-144.17;-229.55;-329.61;6.73;6.91;4.34;54.64;92.49;245.45
1;1.49;-11.87;-1.65;5.92;31.21;-133.97;38.96;27.64;6.96;83.82;175.08;-31.94;-24.41;-25;-10.94;-69.81;-236.83;-256.86;14.7;10.71;3.9;29.85;102.37;74.37
1;7.59;-9.44;0.5;-27.07;-38.55;119.77;22.01;-0.12;10.65;26.91;86.9;440.09;-10.39;-35.45;-10.03;-111.64;-137.36;-303.66;7.2;7.54;4.96;50.36;66.55;240.01
1;1.59;-11.85;-1.33;0.03;13.6;-127.5;32.19;21.82;5.21;68.39;146.55;-11.08;-30.96;-24.35;-8.96;-50.62;-179.92;-250.3;14.18;10.24;3.54;25.98;76.09;86.56
1;7.37;-9.17;1;-39.87;-16.45;118.33;16.44;0.65;12.99;55.35;131.27;423.05;-11.98;-36.46;-11.84;-123.52;-178.89;-365.06;6.67;9.37;5.3;56.96;69.17;249.08
1;1.66;-11.56;-1.62;-1.33;29.12;-123.18;38.79;31.29;7.1;105.65;181.35;-15.95;-25.28;-24.16;-13.04;-88.4;-272.68;-258.18;14.85;12.17;4.17;34.93;95.94;84.55
1;6.25;-9.13;0.76;-30.25;-28.71;91.96;21.5;16.98;9.61;87.38;126.64;441.68;-18.21;-34.12;-9.66;-134.37;-235.91;-288.75;9.66;9.02;4.84;62.04;86.09;254.9
1;1.88;-12.71;-1.92;2.69;38.8;-132.04;35.43;28.95;7.91;40.22;173.27;-38.21;-22.97;-26.16;-10.03;-57.51;-213.3;-233.14;14.39;10.27;3.74;23.31;72.09;69.22
1;8.04;-9.26;0.33;-28.45;-33.31;133.36;18.62;2.49;9.39;36.4;78.93;444.33;-9.27;-35.66;-11.33;-112.89;-158.52;-331.48;6.59;8.52;4.63;49.56;63.22;244.72
1;1.62;-11.78;-0.83;3.33;21.97;-126.38;34.14;20.73;5.56;65.99;159.33;-29.9;-25.01;-22.54;-7.2;-49.62;-204.92;-270.5;13.34;9.77;2.32;27.66;77.93;84.67
1;7;-9.58;0.49;-33.07;-15.95;106.49;18.19;0.89;12.18;69.56;117.14;443.24;-18.82;-35.84;-9.42;-110.03;-146.97;-310.21;8.22;8.94;4.65;47.32;69.19;251.83
1;1.48;-11.78;-1.78;6.88;25.6;-129.71;40.25;24.72;3.79;68.54;148.48;-37.37;-25.39;-23.65;-11.61;-57.21;-260.89;-244.2;14.28;10.05;3.48;29.75;92.93;74.44
1;7.23;-9.16;0.79;-32.03;-19.43;119.23;20.19;1.54;11.3;48.83;139.87;447.57;-15.26;-33.11;-10.58;-126.62;-181.94;-301.18;8.62;9.06;4.89;52.57;84.31;250.6
1;2.15;-11.72;-1.76;1.57;32.4;-128.84;39.74;21.9;5.44;51.18;181.2;-30.08;-22.05;-26.92;-13.02;-51.61;-259.23;-244.26;14.9;9.73;3.58;25.42;99.72;77.48
1;6.56;-9.9;1.17;-32.02;-23.08;103.12;17.53;-1.38;13.43;92.31;109.4;434.07;-10.44;-35.18;-9.45;-117.2;-228.07;-312.42;6.47;8.3;4.42;53.26;92.35;244.33
1;1.09;-11.99;-1.94;6.24;19.21;-134.78;36.75;27.47;4.67;66.53;158.19;-27.91;-25.13;-25.3;-10.45;-53.35;-213.84;-258.22;14.25;10.9;3.52;24.23;88.65;80.95
1;7.91;-9.02;1.23;-38.37;-13.32;138.93;20.14;2.4;11.91;55.91;112.48;454.64;-14.88;-34.69;-7.04;-133.27;-167.16;-313.69;7.48;8.58;4.27;54.91;68.07;250.37
1;1.93;-11.7;-1.18;12.47;11.65;-132.54;39.58;22.39;2.74;72.49;158.49;-50.95;-18.77;-23.35;-6.13;-42.31;-201.53;-263.13;14.01;10.27;2.91;26.24;81.68;78.28
1;6.33;-9.66;-0.24;-26.46;-9.54;113.21;17.84;2.27;10.18;87.1;178.02;477.8;-13.6;-36.31;-10.65;-102.99;-281.07;-293.47;7.76;9.37;4.56;46.15;103.92;268.2
1;1.01;-11.97;-1.51;6.65;24.94;-135.27;38.33;27.66;5.39;85.35;181.73;-30.04;-24.29;-24.04;-6.02;-49.37;-251.52;-267.4;15.49;11.22;2.65;28.89;103.95;83.5
1;6.5;-9.54;0.09;-31.22;-11.21;123.98;20.92;4.51;11.02;38.53;118.74;455.3;-16.56;-33.9;-9.3;-128.05;-143.05;-324.66;8.11;9.05;4.57;54.93;67.02;259.89
1;1.66;-11.78;-1.51;3.22;23.16;-131.43;40.06;28.46;5.74;78.96;184.22;-27.37;-26.15;-23.06;-9.62;-58.94;-251.48;-279.75;15.01;10.93;3.7;26.74;96.32;85.62
1;5.79;-9.1;0.43;-22.25;-25.6;111.37;18.67;2.65;10.86;70.66;105.2;463.12;-18.07;-36.4;-10.88;-89.35;-229.13;-275.41;8.14;8.76;4.8;49;92.25;257.06
1;2.26;-11.26;-1.7;-5.9;28.91;-115.99;40.96;27.46;6.89;39.63;135.02;-3.4;-25.38;-23.23;-8.03;-68.58;-284.75;-237.94;14.88;10.91;3.53;26.2;93.45;81.79
0;0.3;-12.3;-0.29;-0.03;13.74;-109.13;12.51;-2.91;10.44;40.37;80.07;-45.53;-12.49;-30.19;-5.33;-75.04;-138.74;-230.91;6.1;4.93;3.12;21.38;61.05;61.37
0;2.66;-9.65;-1.19;-21.48;-4.71;113.52;16.57;2.8;4.62;42.76;200.49;413.29;-14.24;-21.6;-10.02;-110.8;-218.9;-228.29;7.51;6.7;3.75;38.7;127.39;228.19
0;-0.35;-12.21;-0.81;0.51;20.48;-114.04;15.08;-3.46;7.59;51.7;115.32;-44.08;-14.5;-28.62;-7.89;-81.67;-250.03;-241.21;7.93;4.21;2.93;30.07;94.71;61.43
0;2.57;-9.82;-1.67;-25.08;-17.78;107.65;17.34;0.87;4.69;37.85;225.5;401.56;-13.65;-23.09;-10.6;-92.3;-340.54;-238.06;8.02;6.43;3.7;37.44;141.23;234.64
0;0.71;-12.31;-0.94;0.82;22.99;-117.59;19.65;-2.02;9.17;40.44;125.97;-50.91;-13.55;-31.13;-10.45;-51.24;-259.9;-250.82;9.57;5.04;3.49;22.86;104.73;65.08
0;3.47;-10.68;-1.38;-17.41;-16.9;124.68;17.09;-1.03;6.14;50.09;262.8;426.08;-12.01;-24.34;-11.2;-105.45;-244.93;-222.78;8.32;6.08;4.5;36.48;129.13;235.86
0;-0.02;-12.34;-0.86;0.74;17.48;-119.7;24.54;4.02;9.92;52.98;134.89;-42.75;-15.42;-33.5;-8.04;-88.51;-176.7;-250.99;9;6.08;3.02;31.92;94.88;66.24
0;3.11;-10.92;-0.94;-24.19;-18.45;131.12;17.82;-2.83;6.12;37.64;251.2;439.25;-16.7;-19.83;-12.71;-88.02;-330.93;-223.25;8.67;5.07;4.24;32.64;142.04;241.28
0;-1.23;-12.79;-1.05;8.18;22.68;-122.96;15.59;-6.04;10.57;58.17;107.31;-43.61;-18.32;-35.17;-8.84;-91.46;-308.56;-234.36;9.2;5.6;3.76;34.29;91.75;55.93
0;4.12;-11.24;-1.17;-27.81;-37.23;104.73;18.9;-0.43;5.63;29.08;291.83;402.32;-13.66;-31.78;-10.93;-97.81;-260.74;-239.98;8.02;6.5;4.31;31.52;153.76;243.67
0;-1.19;-12.26;-1.1;4.3;41.69;-125.88;15.81;0.65;8.15;48.67;119.64;-46.84;-18.54;-31.89;-7.92;-39.36;-117.9;-252.68;9.84;5.63;3.17;23.67;65.67;70.63
0;3.51;-10.42;-0.79;-34.18;-31.84;123.93;16.87;0.86;5.16;23.6;186.27;404.65;-13.69;-25.16;-9.44;-102.25;-325.11;-239.35;6.53;6.82;3.95;29.02;107.98;241.55
0;-0.74;-12.82;-0.8;10.21;27.97;-122.56;19.19;2.82;12.03;54.13;160.52;-54.36;-15.28;-35.98;-10.21;-75.9;-238;-246.96;9.07;6.82;3.85;28.53;72.72;59.6
0;3.88;-10.19;-1.58;-20.28;-27.45;126.88;12.31;-1.14;4.52;31.25;152.55;415.75;-11.98;-20.45;-11.17;-64.48;-298.64;-229.93;6.8;5.58;4.14;28.16;116.92;238.93
0;0.09;-12.73;-0.47;3.95;28.96;-122.62;27.3;6.54;11.42;52.62;126.32;-50.84;-13.74;-36.97;-9.74;-79.45;-223.02;-267.4;9.76;7.47;3.48;30.62;76.48;64.68
0;3.33;-11.78;-1.27;-22.3;-36.04;111.56;14.29;-3.31;8.21;28.72;242.53;408.53;-12.11;-32.1;-10.98;-88.37;-216.75;-238.11;7.41;5.87;4.43;28.95;118.4;234.21
0;-0.97;-12.19;-0.98;5.49;39.05;-124.87;19.75;2.33;9.91;50.1;129.3;-50.97;-18.15;-32.41;-7.21;-34.97;-66.85;-244.24;9.93;5.86;3.02;24.86;64.21;67.44
0;2.82;-10.43;-0.93;-36.7;-12.94;131.58;16.88;1.72;5.01;24.66;193.93;418.57;-11.95;-24.17;-9.21;-113.9;-394.09;-221.59;7.68;7.06;3.76;33.13;128.96;243.3
0;-1.55;-13.18;-1.31;14.48;18.77;-133.09;24.71;-3.1;11.75;69.22;134.24;-40.18;-21.34;-33.54;-10.6;-65.91;-408.81;-246.98;11.57;6.15;4.5;32.04;110.62;69.36
0;4.69;-10.52;-0.88;-23.64;-28.57;143.16;15.67;1.02;4.37;26.59;192.97;441.69;-9.28;-25.65;-10.24;-90.16;-232.36;-247.82;7.82;6.6;3.74;28.79;116.76;260.81
0;-1.79;-13.04;-0.81;5.68;21.02;-127.91;20.15;1.17;10.83;51.39;96.64;-53.66;-18.54;-35.71;-14.15;-63.5;-187.9;-248.82;9.04;7.2;4.69;27.73;66.74;65.06
0;3.24;-10.95;-0.78;-29.6;-29.97;126.79;14.03;2.5;4.87;26.16;162.26;432.38;-12.88;-23.84;-9.8;-100.71;-250.3;-242.33;6.88;7.07;3.92;30.64;96.08;247.45
0;-0.82;-12.59;-0.82;6.14;27.63;-129.53;21.32;0.86;11.79;55.91;110.31;-52.09;-18.1;-30.92;-10.1;-51.32;-188.57;-244.16;10.43;5.77;4.29;29.3;82.76;66.68
0;3.09;-10.27;-0.83;-32.08;-20.95;126.87;17.26;1.69;6.02;28.73;261.18;429.07;-14.59;-23.91;-10.48;-118.25;-357.55;-234.2;8.19;6.54;4.09;34.38;138.6;249.79
0;-1.26;-13.05;-1.18;8.21;23.09;-128.54;21.23;2.15;9.51;62.07;109.91;-40.87;-21.18;-36.17;-9.07;-81.81;-315.29;-249.24;10.12;7.23;4.07;33.02;87.26;69.73
0;4.04;-10.41;-0.97;-35.17;-36.14;121.82;12.81;-0.39;5.22;12.21;184.09;433.5;-10.97;-21.59;-10.71;-97.08;-334.16;-228.34;6.57;6;4.27;28.95;116.17;244.26
0;-0.57;-12.42;-0.74;15.79;38.36;-120.65;17.69;-0.09;11.49;63.63;89.4;-41.1;-16.53;-33.15;-5.74;-58.24;-102.97;-240.73;9.22;6.04;3.13;30.96;62.19;65.6
0;3.58;-10.87;-1.26;-22.3;-38.56;118.49;16.14;-2.53;5.85;34.57;197.28;413.06;-16.43;-20.57;-10.88;-83.81;-284.39;-233.34;7.27;5.83;4.75;26.91;126.77;235.68
0;-0.54;-12.87;-0.83;14.49;40.4;-124.55;15.16;-2.04;10.09;63.23;118.55;-60.37;-18.85;-36.07;-5.64;-79.33;-150.79;-241.13;9.1;6.17;3.16;29.75;69.96;60.03
0;3.95;-9.95;-1.26;-27.87;-22.28;120.43;14.87;-0.79;4.97;26.03;173.89;406.14;-15.45;-20.29;-10.68;-75.62;-269.69;-204.95;6.54;5.62;4.16;28.83;120.25;232.58
0;-0.01;-12.39;-1.1;8.03;25.64;-119.34;28.25;5.54;11.41;64.37;135.25;-31.43;-15.68;-37.13;-7.45;-76.77;-298.35;-261.51;10.13;7.7;3.81;34.92;100.05;68.52
0;3.47;-10.83;-1.33;-19.71;-29.01;117.57;13.51;-3.64;7.17;39.5;235.05;407.57;-17.41;-20.81;-11.99;-78.68;-304.28;-209.7;7.82;4.67;4.2;27.11;131.68;233.73
0;0.03;-12.71;-0.69;7.09;29.11;-120.24;19.76;7.04;8.88;58.8;115.12;-49.97;-16.43;-34.97;-5.54;-76.22;-220.02;-269.01;9.32;7.48;2.83;29.89;80.18;66.82
0;2.95;-10.72;-1.19;-36.08;-26.57;120;13.01;-0.76;3.96;25.63;228.59;405.92;-15.21;-20.79;-9.61;-89.41;-350.04;-237.83;6.47;5.61;3.75;27.25;136.56;233.66
0;-0.41;-12.92;-0.84;4.92;25.62;-128.26;19.47;2.18;11.61;56.58;165.82;-56.96;-18.06;-31.39;-7.95;-63.57;-289;-246.46;10.72;6.19;3.77;29.38;108.76;64.52
0;3.74;-12.04;-1.02;-21.29;-37.47;116.49;17.11;0.48;11.04;26.02;222.22;421.82;-16.23;-36.61;-11.29;-87.51;-224.58;-254.54;8.24;7.77;4.8;29.26;122.48;251.75
0;-0.87;-11.71;-1.32;10.84;35.14;-122.68;23.44;7.23;9.79;62.54;103.66;-57.7;-20.06;-31.24;-7;-43.08;-102.65;-250.19;10.11;7.77;3.51;29.9;61.35;63.86
0;3.76;-10.02;-0.71;-30.06;-21.4;132.27;14.38;0.63;5.36;20.51;216.73;433.85;-15.43;-22.89;-9.71;-97.45;-283.88;-250.72;6.75;7.52;4.43;31.78;124.01;243.71
0;0.11;-12.67;-1.26;2.54;22.45;-125.13;24.14;9.84;8.87;57.84;130.92;-42.09;-18.56;-33.39;-6.99;-66.61;-271.95;-293.32;10.58;7.77;3.13;31.38;93.64;71.82
0;3.62;-11.17;-0.93;-33.54;-44.23;112.3;16.9;1.27;6.52;27.06;283.51;412.05;-17.48;-27.65;-9.66;-109.93;-274.25;-242.55;8.14;6.94;4.2;35.11;141.21;241.42
0;-0.46;-12.29;-1.12;5.06;44.91;-120.84;19.33;3.02;12.26;62.61;161.39;-58.9;-18.91;-32.93;-8.85;-51.76;-104.97;-239.44;10.63;6.16;3.59;32.78;89.37;61.27
0;4.51;-10.52;-1.1;-31.4;-27.01;122;16.17;2.22;6.09;22.12;245.65;439.11;-15.61;-22.29;-11.29;-108.15;-240.92;-257.17;7.88;6.64;4.27;32.72;132.23;245.78
0;-0.84;-13.01;-0.93;4.66;20.03;-122.72;22.62;3.14;11.02;55.01;126.7;-44.47;-16.46;-33.4;-9.85;-62.47;-228.35;-256.89;10.56;6.38;3.8;32.55;105.58;65.68
0;3.68;-10.61;-0.83;-34.86;-27.2;116.7;18.37;0.61;6;19.56;247.38;450.3;-13.44;-25.07;-11.07;-113.19;-332.69;-249.54;8.44;6.72;4.1;33.77;138.65;253.9
0;0.85;-11.98;-0.62;9.76;22.26;-122.32;21.31;1.46;10.28;40.31;112.74;-57.54;-16.12;-35.09;-8.97;-23.67;-203.41;-261.84;10.45;6.19;3.21;20.6;77.86;66.39
0;4.16;-10.34;-1.25;-22.82;-23.14;99.1;15.59;-0.5;4.64;25.11;199.47;407.23;-8.28;-24.81;-11;-66.09;-234.8;-235.13;6.26;5.97;3.69;28.36;105.02;234.32
0;0.58;-12.45;-0.7;4.23;30.09;-113.28;27.55;6.27;10.47;48.79;131.82;-49.15;-14.9;-35.12;-8.1;-39.8;-154.73;-237.4;10.1;7.43;3.17;24.88;80.76;62.56
0;3.68;-10.6;-1.26;-33.77;-33.26;109.78;13.65;-1.7;5.5;29.58;256.05;424.09;-11.67;-21.14;-10.58;-97.4;-327.32;-237.3;6.87;6.05;4.15;32.95;143.48;237.78
0;-0.5;-12.46;-0.68;7.93;33.71;-120.91;20.36;4.44;11.24;50.96;106.65;-47.12;-16.62;-34.15;-5.69;-51.05;-99.4;-251.17;10.02;6.68;2.97;25.66;70.34;66.41
0;3.73;-10.54;-1.21;-26.58;-26.39;128.16;23.7;0.65;6.91;23.87;203.05;472.11;-14.77;-27.9;-11.01;-93.85;-272.68;-223.42;9.25;7.33;4.34;31.29;138.68;258.11
0;-0.04;-12.77;-0.72;-0.45;25.8;-126.25;24.24;6.03;9.21;43.98;131.47;-41.14;-14.96;-36.11;-7.19;-79.94;-256.74;-263.71;9.71;7.26;3.62;31.23;97.6;69.67
0;4.01;-10.95;-1.36;-20.33;-31.7;127.7;17.41;0.97;5.39;40.43;130.45;473.92;-16.09;-25.25;-11.89;-72.71;-186.91;-227.68;7.2;6.92;4.42;28.28;96.5;252.14
0;-1.78;-12.92;-1.21;11.26;35.96;-125.9;21.14;0.45;8.82;66.3;122.6;-39.46;-21.28;-32.53;-7.64;-81.02;-146.2;-244.98;10.63;6.11;3.37;34.95;84.98;67.46
0;4.44;-11.14;-0.9;-39.58;-40.73;116.4;14.39;0;7.08;27.8;224.51;428.42;-15.1;-30.41;-10.12;-83.28;-231.06;-252.22;7.41;6.95;4.46;32.82;137.35;246.52
0;-1.13;-12.15;-1.18;10.66;34.67;-121.09;24.98;2.66;10.15;61.43;116.82;-30.76;-17.57;-32.49;-7.56;-34.87;-99.03;-237.13;10.99;6.59;3.31;29.25;65.44;72.59
0;4.31;-10.48;-0.99;-31.36;-32.94;128.73;16.33;0.38;5.46;16.52;234.59;435.15;-12.84;-22;-9.25;-101.9;-216.5;-236.45;8.13;6.55;4.5;33.32;130.52;245.44
0;-1.45;-12.99;-0.67;7.34;28.7;-126.84;19.59;1.99;10.09;53.44;101.5;-53.3;-18.24;-34.52;-8.37;-72.09;-122.76;-242.55;9.51;6.74;3.59;29.34;70.69;63.28
0;4.47;-10.01;-1.17;-27.07;-21.82;132.62;15.24;2.83;5.57;44.45;197.33;476.88;-15.99;-24.31;-10.32;-75.02;-266.2;-237.08;8.09;6.92;4.45;28.07;135.71;256.83
0;-1.9;-13.29;-1.28;14.77;23.45;-129;19.66;-2.84;11.18;64.1;103.62;-49.96;-22.53;-34.23;-7.95;-79.8;-237.96;-236.61;10.2;5.92;3.59;33.59;76.8;60.61
0;5.59;-11.86;-0.28;-31.29;-35.84;134.8;22.81;0.6;13.62;18.88;178.39;482;-12.91;-36.74;-9.79;-87.79;-243.62;-277.89;8.51;8.18;5.02;30.41;131.28;264.04
0;-0.43;-11.47;-1.41;16.22;35.35;-117.07;28.95;5.66;7.18;65.06;124.11;-46.13;-17.32;-29.26;-12.53;-33.35;-143.26;-231.56;11.23;5.64;3.49;28.93;67.46;64.5
0;3.82;-10.73;-1.07;-28.99;-42.99;117.06;12.12;-0.84;4.35;29.71;199.74;432.74;-17.92;-21.1;-10.28;-89.6;-268.79;-234.44;6.9;6.36;4.46;28.23;131.91;237.73
0;-2.06;-12.93;-1.35;13.43;28.8;-127.35;19.43;1.24;11.95;69.84;117.67;-38.81;-21.92;-31.74;-8.14;-58.95;-157.06;-241.79;10.71;6.2;4.28;35.67;78.92;69.32
0;5.06;-9.54;-0.23;-41.54;-24.51;146.96;15.29;0.11;5.36;4.03;202.69;485.9;-5.89;-22.75;-7.27;-100.79;-249.18;-224.97;7.27;6.76;3.23;34.2;122.92;252.25
0;-0.95;-12.86;-0.94;9.12;25.14;-127.36;19.3;2.5;12.62;64.62;108.39;-54.46;-20.52;-35.72;-7.4;-98.9;-235.23;-271.09;10.36;6.98;3.99;33.25;76.89;67.87
0;3.77;-10.24;-0.74;-28.94;-25.1;132.91;14.3;1.44;4.14;20.01;232.04;455.57;-15.01;-22.97;-9.08;-95.6;-292.92;-250.62;7.95;6.66;3.62;32.78;129.9;247.78
0;-0.93;-13;-0.86;7.37;19.36;-129.3;23.17;0.79;11.87;57.21;85.62;-49.07;-20.03;-32.88;-10.76;-66.27;-248.73;-259.83;11.02;6.09;4.48;28.53;73.9;71.51
0;3.68;-10.43;-0.67;-36.97;-27.38;128.22;13.92;0.19;3.5;25.91;161.79;431.51;-17.22;-24.07;-8.65;-87;-219.24;-252.98;7.43;6.4;3.42;33.62;100.94;247.2
0;-1.3;-12.82;-1.02;4.75;27.21;-123.02;22.14;4.5;12.16;67.3;130.91;-43.88;-19.61;-36.28;-9.1;-82.59;-209.93;-260.34;10.48;6.97;3.7;34.42;84.13;65.79
0;4.63;-10.57;-0.99;-23.55;-33.61;137.25;18.21;0.73;6.04;19.63;254.1;484.12;-17.67;-24.63;-9.23;-100.7;-207.31;-242.48;9.03;7.02;4.14;34.73;133.67;260.48
0;-2.12;-13.22;-1.03;3.7;27.91;-127.34;19.11;0.55;11.35;66.01;110.33;-56.4;-19.95;-36.04;-12.35;-86.32;-132.91;-250.34;9.84;6.31;4.41;33.2;75.92;62.45
0;3.84;-9.86;-0.97;-33.24;-23.97;127.34;15.16;3.6;4.01;20.54;235.96;461.4;-15.94;-20.93;-8.19;-107.99;-299.5;-228.26;8.1;6.85;3.45;37.99;147.06;250.18
0;-0.73;-12.8;-0.95;16.49;31.41;-122.7;19.59;1.76;14.65;69.73;108.38;-45.83;-20.42;-36.42;-6.96;-61.47;-207.66;-254.31;10.57;6.74;3.99;29.36;62.02;66.79
0;4.91;-11.14;-1.08;-22.98;-40.58;126.44;17.4;-2.89;7.51;33.1;206.65;448.11;-18.78;-28.4;-10.2;-74.39;-222.09;-218.65;8.7;6.03;4.3;29.78;125.28;242.07
0;-1.08;-12.44;-1.01;5.04;31.15;-121.85;22.84;-0.43;13.49;55.86;116.52;-57.74;-18.25;-36.39;-9.79;-39.05;-135.97;-211.27;9.63;6.11;4.07;27.51;71.07;53.32
0;4.69;-11.94;-0.85;-15.03;-35;117.44;18.09;-3.08;11.16;27.31;191.5;473.09;-18.33;-35.17;-9.7;-69.63;-225.08;-276.68;9.13;6.98;4.52;25.17;116.25;248.83
0;-0.33;-11.96;-1.12;4.81;29.7;-119.09;25.62;3.26;10.41;48.76;132.89;-63.42;-17.15;-31.5;-10.24;-41.05;-135.32;-220.39;10.38;5.81;3.3;23.83;64.81;56
0;3.75;-10.82;-0.31;-26.34;-26.69;115.35;12.24;1.27;11.41;33.25;186.62;450.53;-17.44;-31.97;-8.27;-69.97;-250.36;-260.03;7.24;7.41;4.2;27.55;116.27;250.32
0;-0.75;-12.24;-1.31;5.89;28.95;-123.68;25.48;1;10.69;47.3;170.1;-37.71;-19.85;-31.03;-11.35;-49.69;-175.91;-256.21;12.46;5.01;3.52;23.74;91.14;75.6
0;3.44;-11.09;-0.04;-33.19;-26.87;117.35;13.92;-0.42;11.32;24.8;126.13;430.23;-14.2;-29.61;-7.99;-78.98;-264.72;-253.34;5.83;7.93;4.03;26.09;95.9;251.49
0;-0.78;-12.44;-1.63;6.94;32.49;-124.03;30.02;0.5;11.17;60.48;163.51;-44.67;-21.6;-32.29;-12.03;-43.88;-236.55;-246.7;12.67;5.99;4.06;26.43;95.96;73.99
0;4.2;-10.22;-0.47;-35.39;-25.82;132.29;16.6;1.87;4.47;7.45;176.72;428.26;-7.27;-22.43;-8;-99.2;-268.23;-232.52;6.81;6.99;3.32;28.15;110.62;241.03
0;-1.37;-12.8;-0.9;15.96;25.84;-128.86;19.99;-3.51;13.04;62.92;120.49;-52.34;-18.95;-33.12;-8.94;-50.66;-186.89;-246.71;10.38;6.13;4.24;26.37;75.07;61.43
0;4.7;-10.98;-1.01;-19.15;-37.97;120.43;13.73;0.36;8.97;27.11;161.68;475.03;-11.66;-30.01;-9.63;-72.61;-201.2;-274.98;6.44;7.32;3.82;24.22;93.07;258.18
0;-0.05;-12.22;-1.26;12.39;43.78;-116.62;24.07;1.83;9.98;64.77;144.12;-50.64;-17.66;-31.6;-11.65;-51.05;-115.1;-219.64;10.61;6.06;3.85;32.5;77.25;61.21
0;3.57;-10.62;-0.72;-34.82;-34.03;107.25;11.57;0.47;5.72;40.54;219.05;415.57;-18.62;-21.48;-9.86;-85.76;-333.21;-221.94;7.69;6.28;3.98;32.4;136.56;237.06
0;-0.93;-12.56;-1.15;15.64;33.09;-123.63;18.31;-0.02;10;66.13;108;-57.48;-18.27;-32.4;-7.17;-31.12;-148.57;-242.15;10.53;5.86;3.02;28.32;77.67;63.52
0;5.49;-11.21;-1.09;-15.89;-37.68;126;22.02;0.13;10.08;39.84;258.7;496.55;-15.28;-29.25;-9.58;-78.84;-246.08;-258.51;8.77;7.69;4.58;34.56;135.22;264.42
0;-1.52;-12.6;-1.2;1.54;28.14;-122.26;26.66;2.13;11.83;60.31;127.62;-52.83;-22.2;-33.2;-9.47;-54.64;-199.4;-233.24;11.79;6.05;3.95;30.71;103.94;64.02
0;4.85;-10.13;-0.49;-33.84;-19.18;138.39;16.91;-0.64;5.75;25.9;214.61;447.12;-17.62;-20.67;-8.19;-90.92;-254.7;-223.03;8.29;6.17;4.07;32.88;134.81;247.72
0;-1.33;-12.97;-1.25;13.77;30.59;-128.83;18.85;-3.03;12.64;63.67;105.77;-60.09;-19.38;-36.01;-9.01;-93.36;-179.75;-238.93;10.16;5.96;3.94;32.38;87.11;60
0;4.32;-10.33;-1.04;-21.25;-33.31;128.22;13.52;0.5;4.28;16.83;156.68;472.24;-14.52;-21.7;-8.76;-75.92;-271.79;-242.8;6.96;6.81;3.79;25.32;107.7;258.69
0;-0.5;-12.54;-0.97;14.02;29.25;-130.86;17.72;1.76;11.2;60.77;111.23;-73.86;-21.4;-32.66;-5.9;-52.32;-133.06;-250.79;10.89;6.15;3.14;25.41;63.11;62.09
0;5.13;-10.24;-0.63;-30.92;-26.17;136.57;20.12;0.8;5.64;29.64;232.03;463.06;-11.83;-23.06;-8.91;-106.06;-241.92;-217.07;8.19;7.12;4.32;38.57;115.97;252.91
0;-2.17;-12.85;-0.58;13.18;21.82;-131.62;14.32;-4.44;13.81;58.75;98.99;-53.85;-19.43;-36;-10.63;-96.48;-154.26;-261.99;8.96;6.03;4.27;29.34;65.6;60.13
0;4.55;-9.45;-2.45;-1.4;-0.04;137.61;18.81;3.88;5;69.02;311.59;465.48;-13.69;-23.25;-10.96;-105.28;-249.91;-234.57;9;7.29;4.07;42.39;157.97;257.53
0;0.08;-12.65;-0.87;19.28;25.33;-128.22;25.06;0.76;13.41;58.78;98.9;-69.36;-16.55;-36.39;-6.92;-50.22;-205.31;-264.08;10.41;6.44;4.07;22.01;75.57;56.79
0;3.35;-9.38;-1.59;-22.53;-11.14;121.82;15.77;4.35;5.32;34.03;196.21;476.89;-10.48;-22.56;-9.49;-106.16;-349.62;-246.01;7.51;8.04;4.12;33.05;130.7;258.8
0;-0.09;-12.88;-0.76;19.05;18.25;-124.02;19.22;-2;11.15;60.69;100.81;-62.2;-18.9;-35.85;-4.02;-66.44;-259.93;-269.24;10.14;6.23;3.1;27.29;91.34;59.73
0;3.88;-11.08;-0.75;-21.81;-24.85;110.28;12.3;-0.83;9.75;37.81;169.48;420.57;-14.9;-31.54;-9.8;-63.8;-262.02;-266.23;5.7;6.52;4.15;26.29;125.06;233.38
0;0.19;-11.82;-1.01;15.73;29.51;-114.94;28.87;7.68;11.82;64.3;142.77;-31.01;-16.18;-32.66;-11.2;-41.84;-131.49;-234.03;11.18;7;3.58;27.88;82.83;75.72
0;2.98;-9.72;-1.6;-28.66;-21.1;113.83;15.55;2.91;2.79;40.82;186.55;412.98;-16.6;-22.96;-8.81;-94.86;-302.66;-239.73;7.77;6.82;3.32;38.29;119.96;235.93
0;-0.42;-12.86;-0.81;10.99;28.56;-114.46;24.55;4.86;12.27;75.55;204.99;-41.42;-18.77;-32.63;-5.58;-70.61;-216.45;-266.27;9.8;6.29;3.36;35.18;105.78;66.46
0;4.1;-11.58;-1.23;-18.03;-40.89;116.97;21.34;0.18;10.7;55.77;228.32;463.55;-20.94;-34.55;-12.75;-75.65;-238.47;-278.15;9.14;7.8;5.09;35.76;135.33;247.88
0;-0.48;-11.63;-1.1;7.58;33.7;-115.71;26.93;6.67;10;53.91;121.09;-43.8;-14.98;-32.14;-12.55;-50.3;-127.67;-228.6;10.11;6.47;3.68;28.57;65.96;67.16
0;2.73;-10.78;-0.35;-23.26;-25.43;104.4;18.39;2.33;12;23.84;227.56;419.59;-13.24;-30.61;-8.47;-104.73;-287.1;-263.54;7.49;7.03;4.28;33.7;140.06;231.05
0;-1.05;-12.59;-2.12;11.01;26.9;-128.36;34.73;8.2;8.31;57.39;204.61;-28.57;-19.54;-31.11;-19.01;-56.98;-256.7;-244.16;13.25;6.45;5.52;27.18;104.31;80.29
0;4.53;-9.06;-0.23;-39.11;-22.3;145.59;12.43;0.58;4.14;23.94;181.3;433.94;-3.86;-22.2;-6.58;-109.33;-297.37;-227.75;6;6.14;3.11;36.16;115;228.81
0;-1.11;-12.92;-0.92;12.23;28.95;-122.74;21.71;1.71;11;61.48;123.47;-44.35;-17.1;-36.89;-7.18;-91.71;-242.75;-272.46;9.83;6.95;3.96;31.1;84.71;65.68
0;4.09;-10.7;-0.63;-32.63;-32.63;119.64;12.76;-0.64;7.21;19.78;219.35;428.17;-12.91;-27.68;-10.21;-88;-249.9;-236.08;6.56;6.13;4.11;33.55;129.72;233.12
0;-0.88;-12.06;-1.29;21.4;27.78;-117.29;20.92;2.01;10.92;62.04;86.56;-35.63;-17.52;-33.78;-11.07;-22.24;-84.09;-247.45;10.06;5.62;3.33;25.51;44.23;69.27
0;4.41;-10.75;-0.59;-24.9;-28.19;116.32;20.35;-1.48;8.62;35.23;190.92;449.51;-16.54;-29.62;-8.24;-82.46;-245.67;-228.76;8;6.08;3.85;30.94;120.77;243.8
0;-0.61;-11.94;-1.26;16.52;23.86;-118.43;27.28;-0.72;8.79;56.21;96.98;-47.23;-18.24;-32.07;-10.28;-22.38;-168.06;-247.47;10.67;4.99;3;24.01;67.93;63.07
0;4.83;-11.59;-0.39;-22.66;-34.43;120.98;17.47;-2.93;9.18;26.41;193.94;451;-15.88;-31.66;-8.86;-67.53;-265.43;-305.28;7.36;6.9;4.36;26.17;119.6;250.78
0;-0.33;-11.6;-1.27;6.56;32.1;-115.75;32.91;7.32;10.61;53.06;126.75;-47.39;-20.11;-28.5;-13.19;-65.48;-139.21;-240.75;12.1;5.8;3.56;27.23;72.89;64.9
0;3.54;-10.22;-0.51;-32.66;-19.13;116.46;14.61;1.88;4.04;22.65;166.48;353.37;-9.87;-24.34;-7.62;-85.7;-267.54;-219.51;5.55;6.66;3.12;31.64;88.38;221.97
0;0.37;-12.52;-0.53;10.16;23.07;-117.62;16.55;0.28;11.25;50.88;134.9;-66.87;-13.7;-35.76;-5.82;-72.68;-207.44;-253.1;7.35;6.55;3.41;26.76;78.87;50.26
0;3.62;-11.77;-0.76;-22.81;-31.62;109.24;10.02;-0.66;11.88;28.52;187.42;421.46;-13.58;-34.69;-9.42;-75.66;-214.49;-243.55;6.21;7.35;4.98;25.44;114.55;223.71
0;-1.23;-11.88;-1.65;16.88;23.18;-117.2;27.04;7.05;8.45;73.61;116.93;-37.28;-20.25;-29.63;-8.87;-38.93;-255.84;-245.96;10.29;6.69;3.9;30.47;95.94;66.46
0;5.25;-11.08;-0.77;-19.31;-34.9;136.55;20.61;-0.55;10.03;35.8;200.5;468.56;-12.77;-30.3;-11.05;-77.29;-274;-222.54;8.15;7.28;4.81;31.83;129.87;235.98
0;0.62;-11.81;-1.2;-0.42;33.5;-114.17;34.03;9.41;10.11;49.87;158.1;-60.3;-13.72;-33.7;-11.23;-62.7;-200.53;-248.76;11.23;7.16;3.59;26.89;93.87;59.92
0;2.8;-10.72;-1.03;-16.86;-23.85;116.66;12.38;-0.95;5.66;45.83;158.71;454.31;-18.29;-21.84;-9.13;-58.63;-193.64;-242.35;7.35;6.14;4.27;23.46;98.82;245.93
0;0.13;-12.55;-0.95;11.45;36.47;-117.17;28.76;3.7;10.17;68.98;168.65;-41.84;-17.76;-31.58;-9.24;-72.87;-153.51;-260.49;10.92;6.63;3.82;35.35;96.56;69.48
0;2.96;-9.66;-1.52;-18.07;-9.19;123.05;24.83;-0.05;4.28;42.63;360.2;434.16;-18.33;-19.61;-9.46;-73.18;-356.71;-231.88;9.37;6.92;4.43;30.8;158.09;233.49
0;-0.18;-12.77;-1.07;13.56;16.24;-117.95;22.77;-2.23;8.26;75.02;159.93;-48.48;-16.86;-33.21;-5.28;-60.14;-392.81;-251.57;10.02;5.86;3.28;35.83;129.66;64.84
0;3.65;-10.08;-1.35;-25.93;-31.11;114.23;13.11;-0.45;3.63;67.97;208.97;405.26;-18.76;-20.58;-9.23;-90.9;-211.42;-221.62;7.64;5.55;3.58;41.61;121.43;227.71
0;-0.01;-12.4;-0.51;8.38;26.4;-117.04;28;9.4;13.89;51.49;134.6;-54.95;-18.21;-36.25;-6.29;-72.75;-141.22;-281.07;10.03;7.86;3.67;28.8;72.87;66.03
0;3.12;-10.54;-1.16;-25.56;-22.69;108.41;12.9;-3.18;5.4;47.23;260.7;412.18;-13.45;-22.21;-9.76;-63.59;-260.92;-220.27;7.12;4.68;3.91;32.91;136.1;221.84
0;0.27;-12.51;-0.91;10.48;26.48;-119.5;25.52;4.7;12.91;52.75;140.45;-34.49;-17.28;-32.62;-9.11;-32.9;-146.74;-255.72;10.96;6.75;3.64;25.35;83;78.48
0;3.59;-10.05;-0.88;-27.43;-16.77;120.18;14.68;1.16;3.76;35.97;139.63;416.35;-15.9;-23.34;-9.3;-94.46;-248.62;-257.92;6.22;7.05;3.28;36.68;99.36;239.35
0;-0.42;-12.73;-0.59;7.49;25.96;-115.29;23.53;6.03;8.98;65.94;172.94;-46.39;-16.63;-35.41;-6.62;-57.41;-204.21;-274.07;10.36;6.98;2.77;31.37;88.07;63.01
0;3.56;-10.22;-1.55;-14.53;-29.14;115.42;14.65;2.37;3.73;57.45;254.93;480.48;-17.91;-22.4;-9.25;-84.87;-248.01;-232.8;8.38;6.84;3.61;40.01;142.2;241.18
0;0.17;-12.47;-1.04;11.65;34.94;-117.5;28.41;3.74;10.45;62.01;171.4;-53.24;-18.81;-33.03;-8.19;-46.56;-117.08;-253.02;10.45;6.94;3.47;29.01;78.63;67.75
0;3.67;-10.3;-1.1;-22.19;-34.58;115.43;13.76;1.24;3.59;51.44;160.96;427.24;-19.61;-22.95;-8.98;-91.82;-211.3;-236.13;7.63;6.77;3.48;38.46;100.29;240.12
0;-0.18;-12.8;-0.7;14.1;36.06;-120.18;22.98;7.09;8.48;61.45;165.37;-59.84;-16.38;-35.4;-7.52;-68.74;-157.59;-268.66;9.64;7.35;2.83;30.92;82.51;50.18
0;3.56;-10.99;-1.36;-14.94;-30.44;111.28;11.56;2.35;7.99;47.59;168.58;476.36;-14.25;-26.18;-11.6;-69.62;-257.74;-274.56;6.4;7.19;4.71;28.94;131.11;252.26
0;-0.78;-13.15;-1.67;15.25;17.63;-124.28;24.69;0.71;12.63;66.98;131.44;-49.5;-20.69;-30.96;-8.88;-36.27;-175.47;-224.57;10.95;6.35;4.24;27.88;91.66;69.33
0;5.06;-8.93;-0.36;-28.69;-18.95;159.16;13.93;2;4.7;28.94;202.53;493.25;-4.53;-21.95;-8.41;-106.97;-223.28;-226.92;6.22;6.82;3.65;41.33;113.66;244.67
0;0.42;-12.32;-0.88;5.97;24;-111.84;32.51;8.86;9.27;57.79;139.91;-36.48;-17;-35.16;-7.11;-94.43;-191.9;-296.81;10.28;7.91;3.47;28.78;82.91;71.97
0;2.13;-10.08;-0.9;-23.99;-13.47;109.86;17.84;-0.82;4.59;51.14;192.32;419.47;-21.4;-18.42;-7.72;-63.85;-343.59;-242.04;7.58;6.44;3.42;25.49;111.72;238.73
0;0.18;-12.66;-0.74;-0.52;13.12;-128.73;22.31;3.37;13.81;29.75;191.28;-52.58;-15.33;-34.76;-8.45;-67.51;-267.74;-273.77;10.12;6.47;3.93;20.79;111.25;70.16
0;3.6;-9.77;-0.82;-21.1;-13.78;125.68;19.76;0.27;5.56;32.08;192.36;399.05;-10.18;-25.59;-8.24;-76.29;-298.07;-230.79;6.48;6.15;3.01;26.9;109.6;228.35
0;-0.03;-12.5;-0.81;7.53;20.85;-120.89;27.62;13.09;9.51;54.85;133.29;-53.89;-14.96;-37;-8.88;-75;-242.49;-291.18;9.61;8.82;3.75;29.74;98.85;70.81
0;4;-10.44;-0.95;-19.13;-25.12;117.82;17.78;4.14;8.89;57.14;197.9;444.86;-13.09;-29.45;-10.64;-97.8;-232.71;-261.79;7.75;8.38;4.38;40.77;111.49;242.34
0;-0.22;-12.13;-1.28;11.61;29.52;-114.23;33.37;7.67;11.7;56.62;165.19;-39.79;-18.3;-33.57;-13.13;-50.82;-180.18;-238.71;12.44;6.55;3.82;27.96;85.1;71.56
0;3.39;-9.6;-1.24;-22.42;-28.64;123.3;16.32;2.49;3.06;34.24;205.67;461.6;-15.84;-22.32;-10.02;-94.35;-291.51;-251.21;7.26;6.88;3.33;38.65;129.65;248.11
0;0.89;-12.58;-0.83;5.47;29.92;-112.47;33.27;12.12;5.77;67.26;114.92;-42.82;-17.26;-36.53;-6.1;-93.45;-204.96;-295.11;10.29;9.05;3.38;30.92;88.54;72.37
0;3.31;-10.28;-0.95;-18.62;-24.25;108.85;11.91;0.01;3.49;65.25;156.79;430.05;-22.56;-20.1;-8.9;-79.23;-212.21;-228.4;8.22;6.34;3.51;35.93;112.61;236.53
0;-1.07;-12.94;-1.23;13.21;36.26;-122.41;29.39;9.73;10.12;62.55;169.82;-51.94;-23.4;-33.83;-7.12;-46.46;-170.45;-250.04;12.05;7.77;3.47;29.83;93.32;70.39
0;3.63;-10.39;-0.9;-28.62;-33.24;121.23;14.13;-0.39;8.62;27.29;171.77;426.62;-5.17;-29.47;-8.42;-80.03;-273.68;-230.47;6.17;6.33;3.62;29.57;124.52;233.63
0;-0.37;-11.9;-1.24;19.32;32.08;-121.41;31.82;12.02;13.59;69.51;170.6;-38.06;-17.62;-34.88;-7.4;-44.09;-166.23;-283.83;11.92;7.54;3.81;32.12;91.62;76
0;4.58;-9.98;-1.09;-16.53;-24.02;124.48;15.41;3.65;5.31;35.68;206.21;456.12;-14.98;-24.37;-10.2;-108.41;-243.8;-230.14;7.03;7.52;4.34;40.25;130.7;244.6
0;0.13;-12.59;-0.88;9.71;29.03;-114.58;22.84;4.09;9.87;61.79;115.13;-44.95;-17.8;-34.56;-9.31;-53.54;-156.94;-264.55;10.3;6.57;3.72;28.36;89.83;67.56
0;3.04;-9.6;-1.18;-22.45;-24.46;110.19;13.46;0.61;3.56;41.38;166.89;459.36;-17.2;-22.19;-8.7;-88.31;-291.87;-231.57;7.43;6.87;3.37;38.42;120.18;238.71
0;-0.03;-12.44;-0.8;17.11;23.18;-117.53;22.27;2.73;9.91;57.77;97.67;-56.88;-18.4;-35.83;-4.9;-65.23;-146.1;-285.06;9.81;6.51;2.64;27.26;68.44;64.18
0;4.19;-10.49;-1.02;-13;-25.39;113.43;15.19;3.17;6.27;50.64;162.83;460.99;-13.06;-22.45;-10.1;-68.09;-220.26;-266.49;7.01;7.39;4.44;32.02;119.58;248.48
0;-0.13;-12.18;-1.3;16;29.24;-117.98;24.38;0.15;10.11;57.15;146.17;-59.01;-18.11;-27.68;-8.09;-36.8;-114.74;-235.26;10.63;4.36;2.85;23.56;66.52;61.5
0;5.5;-10.43;-0.71;-25.37;-39.38;118.93;14.01;-1.17;3.65;19.18;141.22;422.26;-10.7;-20.89;-11.03;-79.89;-186.04;-219.75;6.04;5.81;3.73;34.73;88.13;226.1
0;-1.45;-12.88;-1.26;7.14;19.75;-115.33;33.92;9.75;9.01;74.34;189.48;-40.97;-22.04;-33.16;-8.54;-64.93;-281.37;-215.61;12.08;7.72;3.6;36.16;125.86;63.95
0;5.48;-10.22;-0.48;-29.75;-17.03;137.01;16.06;-1.19;3.94;8.04;124.44;454.2;-4.56;-26.52;-9.32;-81.81;-243.99;-217.93;5.41;5.98;3.38;32.07;87.83;230.72
0;-0.09;-12.13;-1.02;18.87;36.42;-117.82;30.73;9.02;9.04;70.56;114.58;-61.36;-19.56;-36.48;-5.96;-31.52;-149.66;-272.7;11.35;7.67;2.67;27.92;77.06;62.51
0;4.83;-10.59;-1.35;-15.74;-30.8;114;18.94;4.04;5.24;49.4;205.46;454.83;-12.94;-21.97;-10.47;-79.6;-197.71;-250.25;8.54;7.94;4.38;32.83;116.41;240.07
0;-0.64;-12.34;-0.9;9.21;28.7;-120.29;27.16;0.92;12.41;48.92;157.81;-63.08;-14.92;-27.42;-6.34;-39.28;-194.55;-223.7;10.46;5.31;3.64;25.51;88.59;54.56
0;4.08;-10.88;-1.07;-23.38;-27.27;122.92;25.37;0.01;4.74;27.5;169.4;490.33;-13.28;-23.3;-9.02;-99.71;-184.7;-239.2;8.9;7.2;4.24;39.61;95.25;245.83
0;0.03;-12.12;-0.75;10.16;24.13;-120.59;33.99;11.57;9.87;54.09;156.98;-55.73;-15.57;-31.96;-7.33;-50.47;-233.59;-281.05;12.34;7.64;3.46;28.83;93.36;64.16
0;4.69;-11.12;-1.13;-11.95;-27.59;118.52;14.25;1.28;7.2;44.5;159.08;452.73;-14.93;-31.8;-10.4;-71.89;-197.07;-272.55;7.79;7.9;4.75;35.29;93.76;238.87
0;0.03;-11.7;-0.98;6.88;32.29;-114.34;35.98;13.86;11.51;53.79;151.13;-46.26;-14.41;-33.6;-10.99;-67.63;-216.44;-228.49;12.07;7.99;3.78;31.22;87.52;63.52
0;3.97;-10.18;-1.37;-12.52;-12.91;117.93;19.29;3.21;5.72;49.02;196.19;468.05;-17.77;-21.97;-9.58;-81.08;-237.09;-208.12;9.18;7.39;4.32;35.2;119.81;241.65
0;-0.51;-13.04;-1.35;0.8;23.37;-133.53;35.23;2.81;11.72;35.05;206.79;-51.28;-20.49;-34.66;-13.06;-58.91;-280.26;-270.93;13.08;6.46;4.49;21.38;120.11;72.34
0;4.59;-10.32;-0.8;-13.87;-26.56;127.01;17.01;3.34;10.72;47.95;146.64;457.1;-10.35;-28.32;-10.53;-87.04;-237.19;-234.04;7.77;8.44;4.59;36.09;95.02;243.61
0;-0.16;-12.14;-1.38;9.76;32.6;-129.76;32;2.79;11.39;44.87;148.31;-58.78;-18.17;-33.49;-10.82;-31.94;-154.32;-251.65;11.84;5.75;3.26;21.29;79.96;64.57
0;4.8;-11.39;-0.82;-5.01;-22.56;114.5;17.2;3.26;13.53;49.56;163.25;483.2;-12.12;-37.23;-9.9;-75.59;-214.42;-265.42;7.76;9.55;5.18;35.74;91;260.29
0;-0.68;-11.66;-1.76;11.59;29.06;-125.62;36.8;10.72;7.39;55.55;156.68;-62.57;-21.07;-28.58;-11.02;-48.24;-208.99;-245.46;12.93;8.13;3.55;28.81;97.06;64.78
0;5.1;-10.12;-0.46;-16.6;-13.6;121.35;13.49;-0.91;10.43;33.81;180.31;472.92;-10.96;-27.51;-8.32;-49.07;-204.1;-237.1;5.64;7.97;4.56;24.07;103.51;248.01
0;0.53;-12.64;-1.74;5.41;23;-139.4;30.07;10.35;11.41;38.85;143.93;-53.04;-25.11;-34.06;-9.77;-31.58;-195.76;-272.71;12.9;7.96;4.09;19.55;99.31;75.31
0;4.59;-9.89;-0.48;-10.14;-24.75;154.93;20.2;0.54;6.4;50.53;162.44;425.12;-10.19;-28.15;-8.62;-73.37;-218.74;-206.91;6.69;6.56;3.96;35.55;98.03;229.93
0;-0.18;-12.08;-0.57;9.47;21.75;-114.57;30.17;2.24;9.09;52.32;153.45;-49.09;-15.51;-32.67;-4.89;-36.61;-183.98;-232.16;9.81;6.05;2.96;23.19;78.46;57.41
0;3.67;-9.74;-1.34;-17.71;-19.67;112.67;13.87;-0.65;3.37;33.09;139.29;424.54;-16.18;-19.78;-7.43;-68.9;-253.31;-216.63;6.24;5.83;3.16;29.84;107.7;225.93
0;-0.92;-12.84;-0.78;3.48;22.78;-127.42;24.26;1.89;10.99;47.76;141.45;-53.36;-20.25;-34.94;-7.26;-89.85;-197.09;-260.36;9.84;6.31;3.09;27.14;80.81;64.76
0;4.26;-9.38;-0.99;-17.31;-3.4;139.33;13.57;2.6;3.65;30.93;172.52;449.78;-8.87;-27.58;-8.93;-67.62;-207.2;-219.56;6.68;7.35;3.53;27.86;110.7;236.41
0;0.42;-12.35;-0.61;11.58;14.95;-120.47;33.34;5.2;11.66;54.59;112.43;-43.9;-15.71;-34.54;-9.9;-53.81;-180.25;-280.51;11.63;6.84;3.82;21.22;77.62;76.17
0;3.27;-10.2;-0.79;-19.71;-15.81;116.13;15;-0.06;3.35;47.16;147.91;438.16;-17.8;-21.19;-9.44;-83.09;-184.93;-228.36;7.02;6.67;3.43;33.32;86.83;237.84
0;0.02;-12.73;-0.6;1.44;16.7;-121.99;33.43;7.2;12.22;46.98;184.61;-44.92;-16.88;-34.38;-11.8;-65.39;-245.37;-284.77;12.56;7.6;4.41;27.56;113.13;74.92
0;2.94;-9.97;-0.71;-26.81;-10.09;116.63;14.87;-0.04;3.66;25.42;118.66;445.13;-15.52;-22.6;-7.2;-78.17;-261.67;-248.45;6.53;7.01;2.77;29.1;81.07;243.63
0;-0.51;-12.76;-0.77;9.47;14.72;-129.29;35.78;6.3;12.58;58.17;243.86;-46.14;-16.24;-34.7;-9.6;-61;-270.88;-276.09;13.4;6.84;4.15;28.95;127.94;72.85
0;4.02;-9.3;-1.21;-21.7;-3.88;137.51;17.55;5.35;4.83;51.98;221.52;502.65;-9.5;-26.77;-9.78;-114.41;-259.82;-238.48;8.18;9.51;4.44;47.74;132.02;262.09
0;-1.51;-13.19;-1.25;19.59;8.78;-124.65;26.29;1.05;8.48;74.04;114.39;-43.7;-21.28;-37.12;-9.44;-88.78;-225.32;-286.51;10.32;6.56;2.95;35.11;90.76;68.54
0;5.94;-9.54;-1.06;-18.48;-19.13;149.73;13.15;0.62;3.59;65.44;183.83;452.74;-3.21;-22.11;-10.35;-66.68;-234.4;-219.83;5.93;6.02;3.62;33.78;110.28;229.79
0;-1.74;-13.08;-0.84;13;21.96;-128.94;22.03;-3.56;11.04;53.6;110.75;-46.95;-17.81;-34.9;-8;-73.34;-113.64;-249.42;9.85;5.85;3.4;27.4;63.07;63.13
0;4.26;-11.05;-0.3;-19.07;-19.92;120;11.4;1.15;12;43.47;117.31;461.52;-13.26;-34.47;-9.95;-57.53;-177.76;-285.18;5.89;8.51;4.22;28.49;88.26;254.11
0;-0.59;-11.69;-1.57;17.2;31.89;-123.34;33.97;5.67;7.64;64.51;132.1;-48.99;-20.66;-30.28;-14.07;-29.49;-117.98;-253.88;12.69;6.61;4.2;24.66;73.52;72.16
0;4.79;-9.62;-0.92;-15.64;-11.48;126.77;15.95;3.88;5.87;41.8;193.88;475.91;-14.29;-26.26;-9.53;-100.94;-216.3;-237.92;7.37;8.75;4.14;41.81;112.44;248.51
0;-1.66;-13.27;-1.58;17.45;4.68;-124.48;25.29;-0.99;7.31;68.6;94.3;-41.09;-21.69;-34.67;-10.03;-78.23;-248.71;-276.74;10.62;6.1;3.22;30.21;100.88;71.89
0;5.89;-9.22;-0.82;-13.46;-6.15;157.28;14.85;4.13;5.05;80.8;140;492.97;-2.22;-24.12;-9.4;-66.95;-229.18;-231.57;5.08;7.84;3.71;39.21;123.13;242.02
0;-0.99;-12.75;-1.02;17.86;29.23;-122.89;26.15;-1.79;11.57;62;150.02;-45.37;-15.91;-32.96;-9.08;-68.18;-131.9;-254.09;10.9;5.62;3.72;28.7;79.26;63.59
0;4.27;-10.08;-0.85;-24;-22.79;114.55;13.05;1.86;8.8;33.55;149.99;459.91;-13.19;-27.32;-9.47;-84.83;-267.26;-221.76;6.85;7.42;3.95;36.98;122.08;241.26
0;-1.21;-12.59;-1.12;24.34;22.54;-125.23;28.6;0.67;14.33;67.63;111.93;-47.12;-17.19;-35.95;-8.29;-14.95;-111.12;-268.12;11.16;6.76;3.83;26.31;67.43;71.85
0;5.36;-10.19;-0.56;-26.32;-18.65;128.17;13.98;2.63;8.59;34.88;194.67;449.71;-9.72;-31.56;-8.96;-109.57;-199.69;-235.3;6.42;8.65;3.96;42.47;125.81;238.01
0;-1.32;-12.93;-1.54;16.86;9.71;-128.01;30.39;2.44;12.27;57.23;109.74;-52.23;-20.67;-34.58;-9.18;-22.87;-233.5;-270.92;11;6.29;3.65;21.12;86.2;69.73
0;4.65;-8.55;-0.88;-28.35;0.45;158.98;20.47;1.62;4.19;31.41;258.46;449.57;-12.42;-19.9;-8.56;-75.21;-334.17;-207.96;7.67;6.22;2.94;33.41;128.56;228.62
0;-0.9;-13.17;-1.08;19.69;17.86;-132.37;31.55;1.47;12.73;65.45;186.05;-46.37;-17.23;-34.47;-8.74;-78.41;-320.33;-291.33;12.5;6.58;3.99;28.77;112.69;70.65
0;4.31;-9.81;-1.26;-24.02;-13.23;131.25;14.45;2.06;5.56;34;215.98;425.95;-11.8;-25;-10.13;-87.78;-276.8;-227.99;7.92;7.3;3.71;36.22;136.53;235.42
0;0.07;-12.31;-1.01;16.13;16.85;-126.43;31.67;0.09;12.95;62.2;142.08;-59.06;-18.4;-32.1;-9.26;-41.08;-235.09;-281.04;12.2;5.72;3.86;24.03;85.12;69.16
0;5.11;-10.59;-0.73;2.32;-15.25;123.63;16.5;1.82;5.79;51.4;145.77;474.52;-10.44;-25.76;-9.65;-55.1;-200.55;-226.96;7.53;7.79;3.67;27.31;104.01;244.83
0;-0.63;-12.47;-0.92;15.76;26.31;-120.83;31.79;3.84;10.58;55.98;142.13;-49.31;-16.66;-34.7;-7.27;-30.86;-164.23;-241.48;11.48;6.81;3.31;25.63;75.22;59.58
0;4.6;-10.17;-1.4;-10.53;-19.65;120.15;16.06;1.13;5.65;47.14;155.3;459.27;-14.65;-26.6;-10.49;-73.42;-206.88;-227.82;7.13;7.58;4.06;32.85;113.04;239.95
0;-1.06;-12.35;-1.21;20.04;27.63;-122.7;30.65;3.92;14.19;64.36;114.44;-54.1;-19.89;-34.71;-8.26;-28.47;-128.79;-275.78;11.56;6.65;3.72;22.86;69.3;67.43
0;5.13;-10.02;-0.57;-21.45;-23.03;124.24;13.65;0.24;4.12;42.84;157.41;474.44;-10.65;-25.75;-8.91;-79.48;-293.71;-223.93;6.37;7.54;3.57;38.63;118.86;247.03
0;-1.48;-12.62;-1.05;18.33;30.98;-127.29;29.07;0.12;12.96;63.23;123.73;-47.23;-20.4;-36.19;-7.81;-37.71;-118.92;-262.1;11.49;6.67;3.61;28.78;73.32;71.42
0;5.8;-9.81;-1.1;-13.34;-15.05;138.15;16.36;5.31;4.16;45.97;127.07;502.41;-12.11;-27;-10.2;-91.83;-180.43;-250.54;7.17;9.69;4.04;40.23;93.15;274.82
0;-2.93;-13.3;-1.01;19.22;16.45;-131.21;15.46;-7.18;8.29;70.11;102.43;-48.47;-22.1;-34.77;-6.46;-68;-139.69;-272.34;10.05;5.8;2.87;31.12;80.45;68.57
0;6.85;-10.4;-2.01;2.86;-24.19;130.3;16.06;3.99;9.64;90.2;121.3;467.87;-7.68;-37.16;-10.84;-85.22;-239.54;-262.1;7.91;9.68;4.9;45.71;111.53;253.03
0;-1.7;-11.84;-1.09;12.06;39.45;-115.23;33.13;8.77;10.24;73.37;161.19;-33.09;-21.25;-32.46;-6.41;-48.52;-242.24;-241.75;12.58;7.44;3.06;33.8;97.16;76.3
0;4.54;-10.07;-1.06;-17.09;-18.13;130.49;17.58;3.05;6.41;43.64;206.51;473.79;-18.08;-27.36;-10.38;-96.36;-207.86;-237.16;8.99;8.4;4.56;39.08;123.74;256.32
0;-2.04;-13.36;-1.42;14.6;13.74;-134.55;26.73;-1.45;13.43;67.22;179.33;-55.25;-21.96;-31.48;-10.75;-53.31;-169.99;-262.76;11.8;5.78;4.72;26.14;98.23;73.24
0;5.68;-9.1;-0.41;-26.96;-8.13;151.72;17.05;1.9;4.86;38.05;176.59;464.23;-3.9;-23.62;-8.73;-109.82;-206.01;-239.25;7.13;7.06;3.62;43.81;129.68;239.09
0;-0.84;-12.26;-0.84;20.05;22.56;-122.64;34.4;0.13;10.19;63.39;127.11;-42.04;-16.41;-31.33;-8.18;-41.92;-170.55;-285.6;11.95;6.03;3.29;24.85;69.48;77.23
0;4.47;-10.55;-0.88;-16.71;-21.67;115.69;15.03;2.03;10.35;39.21;186.38;433.1;-13.4;-30.35;-9.18;-98.72;-228.59;-243.7;7.88;8.13;4.11;39.83;123.75;238.52
0;-0.95;-11.69;-1.66;22.16;37.67;-115.75;33.24;5.15;9.16;89.09;203.19;-19.65;-20.94;-30.29;-9.43;-35.87;-185.24;-261.98;13.01;6.91;3.89;37.49;103.95;75.91
0;4.72;-11.36;-0.99;-15.25;-28.51;118.67;20.84;3.62;10.57;66.51;243.78;488.52;-13.58;-36.63;-11.05;-100.71;-328.68;-251.23;9.35;9.54;5.31;42.53;161.96;253.07
0;-0.38;-11.48;-1.51;21.88;32.37;-118.42;33.52;9.56;6.13;74.34;138.11;-57.66;-19.67;-30.81;-8.58;-23.32;-124.1;-267.76;11.52;7.45;3.25;28.92;66.86;66.09
0;4.3;-9.98;-1.59;-14.29;-22.82;121.33;15.32;3.22;3.83;42.74;181.24;461.76;-17.18;-22.71;-9.34;-72.34;-231.63;-221.94;9.3;7.96;3.88;32.29;136.4;241.12
0;-1.13;-12.48;-0.78;17.52;19.68;-125.58;31.47;1.78;10.25;65.68;106.66;-31.04;-17.14;-32.55;-7.8;-47.83;-206.75;-291.32;11.7;6.5;3.07;30.73;84.99;77.46
0;5.19;-9.58;-1.59;-7.69;-15.43;131.47;21.94;7.18;4.44;40.69;233.5;496.47;-16.55;-25.96;-9.64;-101.31;-260.75;-244.7;9.54;8.76;4.34;38.88;135.05;261.09
0;-1.2;-12.94;-0.78;0.86;16.64;-121.09;30.77;4.62;10.58;57.79;166.9;-34.11;-22.17;-37.19;-13.18;-77.98;-288.25;-279.97;12.14;7.45;4.73;29.8;110.71;76.72
0;3.96;-9.54;-0.78;-18.02;0.81;125.6;15.44;4.02;4;39.11;196.8;448.44;-20.44;-24.12;-9.33;-99.83;-235.04;-242.39;8.91;7.91;3.62;41.15;122.45;244.46
0;-1.35;-12.81;-1.08;11.38;8.27;-125.71;35.28;-1.08;8.27;62.15;248.13;-48.78;-22.3;-32.98;-11.64;-64.61;-326.78;-304.46;13.61;5.88;3.92;26.9;124.19;77.22
0;4.72;-10.26;-1.01;-14.37;-9.04;120.93;19.83;3.56;13.03;55.87;226.25;463.51;-11.68;-32.85;-10.51;-98;-253.21;-247.22;9.01;8.7;4.4;46.15;143.3;247.62
0;-0.55;-11.88;-1.04;15.03;29.49;-118.55;37.54;2.42;11.54;56.88;111.77;-39.75;-19.36;-32.1;-7.53;-18.72;-165.45;-268.44;12.31;5.79;2.91;23.4;66;76.03
0;4.17;-10.38;-2.14;-1.8;-23.75;117.99;16.39;2.75;9.15;73.75;190.4;447.88;-13.02;-29.92;-10.94;-67.06;-256.83;-226.75;8.71;8.05;4.11;40.28;144.44;238.65
0;-1.05;-12.68;-1.45;11.47;38.35;-124.48;34.63;6.55;12.09;57.89;167.58;-26.87;-19.64;-33.37;-8.1;-46.24;-158.34;-274.32;13.36;7.38;3.72;27.7;82.18;82.28
0;5.64;-9.5;-1.1;-14.58;-19.97;146.86;13.8;2.95;2.79;26.46;131.96;460.08;-8.57;-25.25;-9.19;-68.48;-182.12;-245.94;6.43;7.69;3.17;27.25;88.12;242.68
0;-1.56;-12.75;-0.79;11.96;21.03;-126.64;26.46;8.94;8.81;72.66;94.79;-55.5;-19.42;-36.44;-6.39;-70.31;-206.86;-316.86;11.13;7.66;3.3;32.96;77.82;77
0;5;-9.87;-1.18;-11.94;-17.13;130.14;16.99;6.41;5.17;46.3;208.59;468.61;-14.15;-26.47;-9.92;-103.85;-276.23;-242.77;8.63;9.11;4.24;45.78;131.28;247.87
0;-1.28;-12.57;-1.03;8.15;24.83;-122.72;32.19;4.99;10.42;53.41;107.61;-33.16;-18;-33.28;-10.95;-60.83;-223.04;-297.15;11.52;6.77;3.51;26.77;78.86;74.46
0;3.9;-10.07;-1.13;-14.39;-8.75;125.45;15.07;4.11;3.89;39.42;189.47;483.43;-17.31;-24.58;-9.38;-76.06;-191.98;-239.09;8.23;7.52;3.63;33.15;123.55;252.21
0;-1.85;-13.79;-1.17;12.07;10.74;-136.74;28.27;6.08;12.65;56.97;123.97;-43.05;-19.06;-36.13;-9.34;-66.69;-202.63;-305.65;11.1;7.57;4.16;23.73;86.88;83.17
