label;gyro_z_avg;gyro_x_avg;acc_y_stdev;gyro_z_stdev;gyro_x_stdev;acc_x_min;acc_z_min;gyro_z_min;gyro_x_min;acc_z_max;gyro_z_max;acc_x_max;acc_y_avg;gyro_x_max;gyro_y_avg;gyro_y_stdev;acc_z_stdev;acc_x_stdev;gyro_y_min;acc_y_min;gyro_y_max;acc_y_max;acc_x_avg;acc_z_avg
0;3.41;0.06;7.97;181.29;56.52;-8.04;-11.01;-208.83;-145.22;8.59;342.2;30.35;-11.7;93.63;33.82;142.21;4.62;9.88;-262.89;-37.74;353.41;-2.06;5.37;-1.41
0;48.07;28.6;3.76;208.5;35.65;-13.91;-10.31;-203.08;-48.21;5.19;345.26;18.1;-10.96;92.57;15.05;119.99;3.07;7.06;-257.39;-18.08;381.56;-1.9;1.05;-0.22
0;-72.41;-14.81;6.64;150.28;41.82;-12.83;-12.9;-219.09;-145.19;13.75;406.84;23.89;-12.04;81.05;18.6;115.82;5.23;9.59;-189.72;-37.68;280.44;-4.19;2.35;-0.2
0;-44.78;-1.3;6.13;178.93;35.82;-12.43;-6.31;-196.44;-105;11.27;337.2;17.45;-12.1;69.24;10.3;105.16;3.74;8.19;-271.95;-33.43;273.35;-3.78;2.55;0.28
0;-51.68;-8.06;6.64;165.15;44.23;-18.16;-11.14;-215.83;-143.39;15.33;388.8;23.3;-11.96;86.39;11.2;92.49;5.44;9.27;-228.61;-37.51;239.75;-3.75;2.72;-0.12
0;-130.73;-17.46;6.12;71.94;27.03;-17.82;-11.33;-226.46;-105.66;14.32;110.91;26.12;-13.27;56.37;-24.99;108.78;4.47;9.36;-254.65;-34.67;144.67;-6.33;-1.49;-0.03
0;-142.4;-18.24;6.68;48.33;26.32;-12.86;-10.08;-220.94;-122.03;16.77;-60.35;22.66;-13.59;5.46;-25.87;94.63;5.1;8.11;-234.93;-37.06;151.8;-4.91;-2.5;0.65
0;-75.87;-14.51;6.51;155.07;38.82;-13.04;-11.9;-238.06;-119.83;15.84;391.63;22.15;-12.27;108.72;24.95;100.13;5.5;10.22;-253.79;-36.09;211.47;-3.19;1.01;0.06
0;-45.99;-8.37;6.53;170.41;44.3;-11.18;-5.26;-201.89;-134.95;10.32;390.25;16.27;-11.87;84.02;15.6;70.7;3.46;7.86;-135.98;-36.42;121.88;-6.13;2.63;-0.28
0;-118.29;-20.08;6.81;92.21;23.33;-13.82;-13.48;-233.97;-70.86;16.76;192.38;26.73;-12.69;36.08;-8.4;71;5.43;9.01;-167;-34.39;104.03;-1.91;-1.8;0.28
0;-132.16;-12.32;7.29;79.49;28.05;-20.35;-8.1;-249.01;-115.18;11.28;148.31;12.93;-13.01;44.83;-26.95;70.7;4.35;8.05;-196.85;-36.81;82.03;-3.77;-2.76;0.53
0;-128.46;-6.41;6.81;83.3;18.27;-11.4;-9.32;-240.24;-46.18;9.75;146.32;25.57;-12.41;56.04;-17.42;82.23;4.14;8.96;-234.4;-36.37;106.02;-2.33;-1.65;-0.17
0;-126.43;-11.29;7.07;79.61;22.7;-13.94;-9.05;-251.9;-96.7;6.21;118.34;29.27;-12.87;52.52;-15.24;88.02;3.6;9.98;-213.68;-37.82;129.18;-2.48;-1.4;-0.14
0;-47.5;-3.77;7.07;167.82;42.26;-12.1;-10.05;-182.1;-128.14;13.15;421.73;26.55;-12.01;72.71;27.1;133.66;4.49;9.58;-292.98;-38.01;370.1;-2.89;2.58;-0.36
0;-139.37;-13.16;5.86;64.51;25.83;-21.38;-8.19;-235.43;-98.33;10.29;91.22;10.44;-12.98;43.36;-35.02;107.74;4.18;7.54;-358.52;-29.76;98.08;-4.05;-3.24;0.64
0;-134.14;-18.65;5.66;49.67;25.72;-19.37;-8.47;-202.94;-100.33;16.63;25.4;28.67;-13.29;23.51;-28.95;119.28;5.12;10.42;-316.22;-33.37;152.93;-6.09;-2.71;0.46
0;-127.88;-5.9;6.55;59.36;25.75;-20.76;-8.04;-211.39;-83.67;11.2;94;24.28;-12.66;65.39;-28.53;108.72;3.92;9.63;-331.71;-37.11;106.37;-2.42;-2.13;0.04
0;-110.99;-6.46;4.52;87.24;22.53;-16.87;-7.9;-216.44;-66.2;3.32;142.83;20.57;-11.62;47.68;-10.05;75.84;3.09;8.03;-238.58;-32.14;67.64;-4.26;-1.48;-0.45
0;-115.36;-12.11;6.12;76.24;28.48;-17.97;-11.78;-196.94;-114.73;9.23;140.81;23.84;-13.13;59.93;-26.2;97.74;3.95;8.34;-269.93;-34.5;101.02;-3.54;-1.49;0.13
0;-125.47;4.65;6.57;83.2;25.81;-18.77;-10.02;-231.78;-56.9;6.07;173.68;26.54;-12.13;99.36;-26.65;120.87;4.2;10.04;-320.88;-36.43;133.42;-3.19;-1.38;-0.43
0;-127.82;-16.45;6.03;89.83;30.6;-15.64;-8.31;-238.87;-97.02;13.37;199.87;24.07;-13;81.17;-37.48;114.13;4.63;9.02;-248.39;-28.23;135.07;-3.17;-2.59;0.16
0;-150.63;-15.16;6.89;61.71;26.85;-13.23;-10.9;-261.58;-123.82;11.35;-7.56;27.85;-13.9;22.41;-31.16;112.5;5.22;9.65;-266.08;-34.76;154.78;-4.45;-2.04;0.22
0;-146.58;-22.44;7.37;63.76;30.75;-18.74;-9.3;-259.83;-125.21;12.37;-31.64;27.67;-13.78;12.33;-16.75;80.21;4.44;11.33;-225.41;-37;127.14;-2.15;-1.65;0.6
0;-139.74;-17.66;7.19;56.71;22.03;-17.35;-6.86;-231.82;-82.22;6.59;5.88;27.67;-13.04;18.81;-20;94.52;3.51;10.24;-254.99;-38.87;118.33;-0.78;-2.6;-0.06
0;-140.61;-12.69;7.52;65.74;22.55;-19.53;-6.73;-245.02;-98.55;4.7;-32.64;28.97;-13.02;14.94;-16.92;93.69;3.11;10.49;-262.05;-37.71;117.3;0.89;-1.85;-0.25
0;-129.44;-14.87;7.93;64.46;17.78;-14.95;-7.9;-250.91;-54.31;6.12;-22.5;31.31;-13.31;22.8;-5.6;103.27;3.54;10.33;-289.35;-37.01;160.44;4.11;-1.79;-0.08
0;-141.97;-16.55;7.22;68.88;18.35;-18.81;-8.1;-256.51;-81.72;5.24;-32.46;36.01;-13.48;13.17;-11.55;93.61;3.46;11.49;-249.07;-35.38;144.24;1.1;-1.17;-0.31
0;-148.85;-17.72;6.31;64.86;21.79;-17.11;-14.16;-260.9;-123.94;10.97;-57;24.8;-13.69;7.88;-6.31;82.79;4.77;9.3;-204.49;-32.52;113.88;-5.57;-2.09;-0.05
0;-140.59;-10.45;5.84;74.09;11.93;-15.41;-9.82;-258.07;-41.07;7.02;37.36;32.23;-12.32;8.75;-3.68;78.38;3.87;10.21;-224.1;-25.31;151.85;-0.96;-0.55;-0.6
0;-142.7;-13.96;6.99;50.73;32.4;-22.47;-10.22;-220.56;-121.07;15.2;-66.74;32.73;-12.91;21.44;-25.59;124.52;5.2;11.33;-365.13;-38.21;224.35;-2.34;-2.91;0.09
0;-146.12;-8.71;7.05;54.07;26.39;-21.62;-10.31;-244.9;-89.4;4.88;-65.9;29.8;-12.83;39.85;-26.78;87.26;3.4;10.5;-226.26;-38.28;159.81;-2.97;-2.18;0.15
0;-132.93;-9.38;7.34;45.7;37.2;-18.88;-8.72;-221.49;-137.73;10.06;-39.63;33.68;-12.97;26.62;-22.34;119.64;3.65;11.8;-299.45;-39.6;208.55;-1.03;-2.17;0.42
0;-115.99;-8.72;5.48;56.23;23.96;-14.81;-11.64;-222.39;-73.81;4.05;-15.31;36.17;-12.34;33.39;-12.97;129.46;3.41;11.02;-339;-31.7;196.58;-2.44;-1.06;-0.74
0;-116.89;-5.32;6.34;67.34;22.18;-15.96;-6.48;-201.1;-83.84;4;75.74;20.68;-12.8;33.71;-8.12;84.18;2.95;8.74;-176.03;-37.69;93.83;-3.28;-2.36;-0.47
0;-147.07;-19.51;6.2;55.15;30.46;-19.9;-12.47;-223.64;-118.84;12.39;-46.62;32.72;-14.03;21.75;-18.6;143.95;5.07;11.16;-397.68;-31.14;270.82;-4.74;-1.74;-0.03
0;-69.18;-15.16;6.75;174.12;42.34;-22.15;-12.24;-237.47;-135.7;9.81;430.49;29.5;-12.28;91.97;18.99;145.48;5.33;11.13;-371.7;-36.01;371.99;-3.85;1.55;-0.07
0;-128.75;-21.94;6.55;57.82;23.39;-19.69;-5.47;-213.52;-112.86;4.13;16.08;35.17;-13.25;17.11;-17.15;107.69;2.79;11.35;-255.11;-34.77;144.58;-2.41;-2.02;0.1
0;-45.78;-7.22;6.62;172.46;45.96;-10.49;-9;-201.51;-141.99;10.63;391.12;17.56;-11.91;87.7;6.58;50.34;4.16;8.14;-111.98;-35.65;112.67;-3.47;3.48;-0.34
0;-53.32;-14.28;5.2;168.83;40.47;-10.66;-7.22;-215.58;-133.66;6.04;408.23;30.59;-12.2;71.6;7.71;77.94;2.79;10.07;-211.09;-29.77;144.46;-6.33;2.78;-0.69
0;-37.04;-0.94;6.54;205.44;46.56;-14.43;-11.33;-192.31;-124.11;12.69;501.36;23.74;-12.34;120.32;18.15;101.51;4.48;9.04;-202.2;-37.04;312.54;-3.7;2.49;-0.32
0;-124.5;-2.28;6.67;66.83;17.56;-12.94;-15.29;-239.07;-75.51;9.68;39.88;33.03;-12.69;32.31;-25.01;109.82;5.17;10.24;-261.27;-38.81;175.21;-0.16;-1.73;-0.53
0;-48.13;1.03;5.78;170.56;39.64;-18.63;-8.96;-230.36;-106.6;9.44;360.67;35.65;-12.2;81.8;19.48;134.8;4.32;12.91;-323.54;-32.73;298.98;-4.08;2.75;-0.55
0;-81.4;-14.34;6.24;162.33;36.18;-24.49;-14.51;-260.65;-118.24;9.95;372.71;39.32;-12.49;80.41;21.31;152.81;5.47;13.66;-386.14;-33.1;313.18;-3.17;0.81;-0.06
0;-129.1;-9.43;6.72;87.1;19;-17.71;-12.62;-258.27;-48.67;5.78;137.77;30.98;-12.41;47.49;-17.31;71.49;4.17;10.79;-195.93;-34.37;77.92;1.54;-0.92;-0.25
0;-128.85;-16.11;6.2;49.94;32.32;-20.42;-10.01;-201.05;-101.19;14.53;9.39;20.5;-13.17;21.19;-31.26;118.89;5.2;9.91;-311.52;-36.07;159.49;-4.6;-2.05;0.57
0;-32.68;-3.37;7.92;163.1;43.73;-17.01;-8.98;-203.28;-138.59;9.12;321.86;18.23;-11.54;66.12;13.55;102.49;4.58;9.86;-159.04;-39.04;314.28;-1.17;2.85;-0.13
0;-48.15;-1.91;6.62;155.38;42.76;-16.2;-8.55;-197.54;-95.11;5.04;298.58;27.01;-11.93;104.38;25.02;139.39;4.23;11.62;-275.15;-35.86;334.3;-2.95;3.57;-1.48
0;-120.51;-11.14;7.31;113.39;38.01;-18.1;-6.32;-233.73;-117.89;7.44;248.33;29.72;-12.95;113.74;-38.31;116.77;3.43;10.68;-284.58;-35.01;158.05;-3.34;-2.1;0.14
0;-54.28;-3.06;5.8;173.43;47.83;-17.57;-15.22;-305.61;-134.28;7.62;323.48;25.63;-11.81;101.64;29.76;99.75;5.14;12.76;-195.34;-30.93;210.16;-3.51;3.18;-0.66
0;-53.81;-14.09;4.38;175.47;39.57;-15.36;-13.8;-242.6;-94.59;10.02;389.03;36.59;-12.54;83.23;35.22;136.71;5.41;12.01;-339.66;-26.84;278.59;-4.94;3.49;-0.96
0;-45.03;2.2;7.46;169.11;46.39;-22.21;-7.2;-209.66;-132.11;6.45;378.16;15.06;-12.11;81.89;22.52;90.64;3.64;9.68;-122.25;-39.15;315.84;-3.21;2.97;-0.04
0;-138.02;-20.06;6.91;73.12;34;-19.9;-10.15;-265.98;-132.75;7.14;86.08;32.85;-13.53;40.7;-27.24;96.04;3.95;11.64;-231.84;-34.86;169.7;-3.69;-1.9;0.53
0;-143.51;-27.16;7.69;59.52;41.09;-21.18;-6.91;-239.3;-160.85;8;-39.98;30.71;-13.87;24.95;-26.34;129.21;3.62;11.2;-297.46;-37.36;142.63;-0.32;-1.8;0.1
0;-148.88;-15.19;7.76;52.81;37.13;-25.02;-11.78;-237.2;-144.59;15.25;-49.54;21.27;-13.9;30.83;-33.33;114.46;6.06;9.58;-332.37;-39.43;81.38;-4.28;-2.81;0.67
0;-38.22;-14.41;6.18;200.77;40.53;-15.22;-9.03;-210.78;-119.75;9.05;500.32;23.41;-12.85;69.09;3.48;77.21;4.11;9.72;-201.25;-33.42;164.85;-3.61;2.3;-0.23
0;-145.42;-13.65;6.4;60.25;34.3;-24.9;-7.37;-237.74;-112.97;7.29;46.73;29.99;-13.91;38.42;-33.56;124.65;3.71;11.22;-355.5;-31.57;158.64;-4.17;-2.8;0.36
0;-19.98;-11.57;7.32;198.59;46.81;-12.63;-7.67;-198.2;-143.08;8.01;500.09;26.41;-12.03;82.17;6.96;59.09;3.34;9.62;-122.91;-35.28;105.61;-1.56;4;-0.76
0;-149.47;-14.94;6.67;54.13;31.55;-18.65;-7.29;-246.56;-119.01;12.54;-65.89;22.73;-13.71;18.38;-38.6;112.29;4.53;9.3;-332.52;-35.69;130.69;-4.75;-2.7;0.76
0;-118.64;-20.9;7.29;95.49;19.77;-17.52;-14.75;-267.26;-64.72;6.75;176.21;39.72;-12.19;32.22;-24.34;100.58;4.57;13.26;-311.49;-36.16;154.02;0.78;-0.43;0.03
0;-67.4;-10.97;7.56;165.54;42.58;-16.7;-7.34;-257.65;-154.11;13.19;367.61;24.79;-11.9;53.75;1.94;74.28;4.37;11.29;-231.35;-37.35;116.77;-0.03;0.82;0.69
0;-137.76;-7.33;7.16;79.87;22.88;-22.33;-11.67;-273.02;-91.9;9.93;77.41;24.6;-13.71;60.55;-34.34;116.18;4.53;11.51;-371.95;-33.88;61.4;-3.57;-1.81;0.02
0;-129.68;-17.38;7.29;96.21;19.19;-15.71;-10.02;-260.97;-65.57;6.64;165.37;33.39;-12.71;17.46;-23;95.07;3.74;11.21;-305.12;-36.53;152.99;-0.41;-1.28;0.07
0;-122.6;-19.1;7.45;86.13;33.08;-18.43;-9.02;-233.68;-142.26;8.99;158.75;34.81;-13.22;50.34;-14.59;96.22;3.62;11.06;-233.09;-35.94;121.63;1.84;-1.49;-0.07
0;-38.1;-11.82;7.52;177.1;47.79;-12.73;-6.81;-204.76;-159.27;5.39;382.85;20.68;-11.83;67.04;5.71;72.2;3.02;9.17;-171.6;-38.44;179.36;-0.56;3.21;-0.4
0;-65.42;-21.51;6.33;172.48;48.57;-11.03;-11.03;-328.21;-188.71;7.95;415.31;28.33;-12.57;61.89;5.36;66.44;4.44;10.93;-104.92;-34.5;87.28;-2.39;3.42;-0.44
0;-27.49;-8.71;7.86;184.73;53.04;-9.91;-14.03;-221.04;-167.52;7.84;380.99;29.84;-11.69;85.05;16.59;131.66;4.48;10.03;-293.32;-37.19;259.94;-0.39;3.96;-1.23
0;-144.75;-17.16;5.69;79.33;26.57;-16.43;-7.88;-264.39;-113.1;13.39;123.13;28.39;-13.14;47.79;-26.68;109.35;4.62;10.99;-253.88;-27.58;202.78;-3.69;-2.67;0.55
0;-124.54;-17.77;8.13;102.49;20.21;-16.32;-9.34;-271.69;-88.55;7.58;174.35;31.13;-12.89;37.76;-18.96;78.9;4.04;11.42;-184.78;-36.53;134.2;0.27;-0.97;0.37
0;-122.29;-17.17;5.54;112.2;30.56;-21.26;-10.94;-285.89;-71.34;6.67;219.86;28.55;-13.23;94.47;-20.87;92.96;3.99;11.52;-236.28;-26.02;105.64;-5.1;-1.31;0.01
0;-135.89;-28.73;7.84;80.82;22.32;-16.62;-10.43;-266.9;-102.83;9.66;14.76;36.28;-13.33;21.07;1.77;86.01;4.39;12.02;-217.1;-37.27;153.88;-0.37;-1.46;0.35
0;-130.06;-21.75;7.13;98.31;18.32;-17.29;-8.63;-269.43;-64.14;7.25;188.35;33.56;-12.82;45.39;-14.6;91.11;3.73;11.56;-224.78;-33.62;132.68;-1.69;-0.71;0.14
0;-139.28;-20.78;7.1;77.77;28.5;-24.9;-6.65;-251.16;-113.1;12.01;111.75;26.77;-13.59;17.48;-33.38;114.15;4.12;11.07;-257.9;-34.6;144.89;-2.14;-2.44;0.61
0;-133.46;-27.19;7.59;77.15;33.45;-26.03;-12.09;-260.96;-162.7;11.33;129.96;35.55;-13.28;33.27;-17.74;129.6;4.86;13.77;-320.86;-37.06;254.8;-0.74;-2.86;0.32
0;-142.97;-32.55;8.2;52.46;45.8;-15.36;-9.01;-227.39;-199.86;6.91;-53.82;27.19;-13.24;10.7;-24.05;95.54;4.08;10.23;-228.37;-39.69;104.21;-1.63;-0.44;-0.02
0;-133.02;-12.87;8.09;83.69;23.08;-20.76;-8.08;-263.31;-60.42;6.81;71.85;36.47;-12.75;55.07;-19.14;120.78;4;13.89;-335.58;-36.32;154.63;3.53;-1.54;0.29
0;-133.86;-12.85;7.88;82.91;23.05;-20.99;-9.91;-262.63;-70.01;5.98;74.98;37.93;-12.61;57.6;-13.3;109.5;3.98;13.09;-265.78;-35.37;159.37;3.3;-0.5;-0.65
0;-145.45;-23.68;6.83;69.94;21.68;-15.06;-8.95;-257.52;-102.26;8.68;20.59;31.53;-13.37;7.36;-15.37;89.19;3.72;10.49;-250.95;-32.58;169.94;-1.3;-1.39;0.26
0;-136.18;-13.05;6.2;79.96;19.96;-16.46;-8.24;-255;-65.38;7.7;106.72;36.03;-12.58;44.19;-25.66;117.86;3.75;11.59;-334.27;-36.86;214.42;-1.93;-1.22;-0.13
0;-145.2;-18.43;7.54;71.55;18.77;-15.85;-14.82;-261.28;-93.24;9.58;-20.72;34.08;-13.4;15.56;-24.58;88.49;4.71;10.86;-211.31;-37.34;138.51;-0.68;-1.22;-0.19
0;-139.82;-16.16;6.41;89.67;29.23;-15.67;-6.91;-279.78;-116;10.4;159.41;19.81;-12.88;48.77;-24.66;78.93;4.49;8.72;-201.74;-29.84;150.57;-1.18;-2.71;0.77
0;-119.37;-14.89;6.86;109.1;27.41;-14.32;-9.15;-263.98;-109.44;8.23;193;28.82;-13.14;63.35;-20.86;82.68;4.23;9.88;-218.54;-34.59;138.95;-1.75;-1.88;0.25
0;-132.05;-17.34;7.31;71.75;26.66;-14.41;-9.76;-247.14;-115.61;9.01;72.44;29.24;-13.29;30.86;-8.8;88.81;4;10.15;-227.89;-36.35;160.52;-0.63;-2.25;0.64
0;-135.51;-22.72;6.53;74.45;25.55;-16.3;-10.95;-259.66;-109.59;10.28;82.52;30.7;-13.8;14.81;-19.92;74.64;4.1;10.44;-203.3;-32.95;100.41;-1.14;-1.94;0.56
0;-147.27;-26.02;6.86;63.03;37.73;-18.52;-9.96;-259.35;-152.09;8.05;-25.29;24.66;-14.22;28.65;-11.32;99.45;4.17;10.89;-227.76;-36.52;127.58;-2.68;-3.07;0.12
0;-110.55;-14.28;5.13;125.6;30.22;-14.84;-9.64;-268.66;-98.78;8.61;249.44;22.44;-13.21;74.56;-14.14;67.27;4.64;9.3;-174.18;-29.77;83.46;-4.95;-2.8;-0.14
0;-123.78;-23.62;6.85;109.13;32.68;-16.26;-6.84;-291.79;-132.86;12.1;180.03;14.22;-13.89;87.84;3.65;87.2;4.15;9.23;-227.89;-34.31;131.03;-5.17;-2.22;1.01
0;-34.36;-17.35;8.08;192.82;53.34;-13.55;-13.62;-204.97;-143.83;10.37;500.29;25.84;-12.34;130.49;13.55;64.88;5.17;9.74;-173.61;-34.48;129.15;1.48;3.34;-0.98
0;-139.96;-17.06;6.83;54.85;34.24;-19.95;-11.78;-236.3;-128.88;16.58;-58.92;23.42;-13.75;25.79;-19.11;107.62;5.97;10.22;-285.1;-37.45;161.28;-5.06;-3.39;0.65
0;-138.04;-29.31;5.5;74.66;31.59;-18.44;-6.78;-222.73;-108.93;10.94;137.61;23.59;-13.24;47.27;-23.14;103.42;3.87;9.26;-263.75;-28.61;122.62;-5.54;-1.82;0.96
0;-38.27;-2.83;7.15;186.1;52.56;-19.83;-9.35;-211.69;-146.88;9.68;414.12;29.81;-11.59;99.87;5.5;109.63;4.47;12.37;-284.38;-37.45;273.68;-3.09;3.33;-0.57
0;-34.38;-3.49;8.12;212.95;53.03;-17.23;-8.65;-233.13;-159.28;8.54;501.82;27.68;-11.96;104.4;7.59;51.1;4.4;11.72;-128.69;-37.39;106.25;1.07;2.58;-0.08
0;-138.07;-13.82;8.01;67.92;33.44;-22.09;-15.17;-231.63;-148.44;8.49;61.23;36.1;-13.78;24.52;-25.86;148.4;5.31;13.38;-315.28;-37.68;237.86;-0.74;-1.95;-0.24
0;-127.79;-10.84;6;77.93;21.5;-16.71;-11.44;-251.76;-69.26;4.4;67.53;34.14;-12.28;35.59;-5.88;105.13;4.22;11.66;-266.47;-33.08;193.36;0.78;-0.54;-0.43
0;-138.96;-26.5;5.89;91.51;31.12;-24;-10.32;-285.16;-121.01;14.63;128.04;32.46;-13.43;29.82;-17.79;106.65;5.25;11.98;-340.82;-28.91;219.85;-5.12;-2.43;0.74
0;-43.72;-10.48;6.73;205.12;46.76;-19.28;-10.59;-248.96;-137.54;6.19;501.33;26.9;-12.18;116.83;11.72;90.93;3.94;10.68;-214.05;-35.25;196.17;-4.87;1.41;0.07
0;-129.17;-15.38;7.32;86.37;25.78;-20.92;-7.62;-267.7;-89.5;7.15;157.15;31.16;-12.36;38.42;-22.74;81.46;3.35;12.14;-200.28;-37.71;125.17;-0.69;-2.12;0.33
0;-123.32;-19.61;7.24;93.51;31.26;-17.41;-7.32;-256.44;-121.44;10.57;147.63;26.67;-13.19;66.68;-7.12;91.74;3.71;10.39;-251.46;-36.36;133.57;-2.73;-1.44;0.41
0;-38.77;-9.68;6.95;181.63;57.73;-18.1;-11;-228.71;-141.25;7.71;371.46;40.04;-12.27;128.03;5.99;154.83;4.79;13.61;-447.02;-36.08;278.39;-3.62;2.56;-1.22
0;-155.45;-20.44;7.79;76.88;32.36;-20.19;-10.09;-298.76;-138.17;9.26;57.04;36.1;-13.96;32.1;-28.97;119.16;4.8;12.23;-319.69;-37.14;240.98;-3.18;-2.9;0.3
0;-142.26;-21.02;5.75;75.62;30.79;-21.38;-8.22;-268.26;-124.95;9.89;93.95;32.79;-13.76;39.5;-23.26;110.28;4.43;11.56;-314.23;-29.41;197.23;-4.49;-2.61;0.85
0;-152.04;-30.21;8.32;59.51;42.6;-21.47;-7.37;-262.33;-159.1;6.17;-72.26;25.8;-14.01;30.31;-28.95;114.29;3.37;11.7;-259.69;-38.71;153.22;-2.68;-1.69;0.44
0;-142.56;-21.66;7.93;77.55;20.85;-16.42;-9.75;-269.91;-103.08;8.54;66.62;36.15;-13.44;23.36;-18.48;79.14;3.95;11.5;-233.36;-37.24;132.71;-0.65;-1.74;0.14
0;-153.37;-28.17;6.17;80.97;24.78;-19.9;-10.82;-291.25;-126.11;15.82;63.5;28.41;-13.7;8.93;-16.95;98.49;5.55;11.11;-272.25;-27.89;191.67;-3.09;-1.87;0.8
0;-43.25;-11.1;6.38;213.37;43.23;-21.63;-9.9;-263.38;-137.03;9.52;501.24;28.12;-12.53;75.86;3.07;73.39;4.39;11.35;-237.9;-33.86;137.72;-3.58;0.54;0.27
0;-121.89;-27.59;6.47;90.7;32.7;-16.81;-6.79;-256.41;-148.65;12.51;129.3;21.28;-13.2;81.38;0.46;103.75;3.79;9.61;-245.1;-33.06;162.64;-2.76;-2.19;0.74
0;-22.86;-0.98;7.18;192.47;45.98;-19.77;-9.19;-189.5;-129.21;11.11;393.1;31.36;-11.86;84.78;20.82;123.81;4.43;12.03;-298.92;-37.35;328.43;-1.86;3.33;-0.94
0;-139.08;-17.24;7.2;87.69;28.99;-21.51;-6.5;-292.01;-117.2;6.2;139.81;25;-13.47;59.68;-22.52;81.54;3.15;10.97;-236.42;-36.16;97.98;-3.4;-2.56;0.67
0;-146.7;-24.51;7.41;75.57;29.36;-19.53;-8.22;-273.36;-153.34;6.97;61.7;36.9;-13.35;6.79;-24.51;113.15;3.85;12.75;-313.54;-36.71;228.41;-0.57;-2.47;0.15
0;-35.16;-3.82;7.56;177.19;58.09;-10.37;-9.39;-188.26;-174;9.42;382.88;25.69;-11.62;113.42;15.96;59.77;4.2;9.83;-143.17;-37.78;154.17;-2.03;3.91;-1.11
0;-145.98;-27.98;7.49;76.36;28.17;-16.73;-7.26;-270.58;-145.45;9.04;42.11;28.98;-13.83;3.84;-25.62;78.61;3.4;10.25;-214.05;-36.18;92.73;-1.63;-1.77;0.54
0;-149.66;-23.99;7.35;58.4;43.96;-25.55;-18.24;-259.09;-170.14;15.25;-50.85;24.32;-13.98;24.77;-22.27;100.83;6.7;11.57;-321.03;-36.63;100.09;0.33;-2.41;0.36
0;-144.57;-23.98;7.88;80.24;29.83;-19.37;-10.48;-282.64;-157.59;8.28;73.9;37.14;-13.59;30.24;-17.97;121.37;4;12.35;-289.39;-39.03;237.15;-0.25;-2;0.22
0;-149.16;-30.18;8.33;64.73;39.46;-15.49;-13.94;-259.99;-164.65;8.07;-29.67;32.9;-13.96;10.91;-13.58;86.1;4.46;11.54;-229.07;-39.24;163.81;2.5;-1.24;0.47
0;-156.78;-23.22;7.88;65.63;42.5;-17.7;-11.06;-287.58;-154.83;8.63;-80.44;19.37;-14.03;48.08;-29.67;78.19;4.91;10.5;-211.11;-37.74;94.54;-2.46;-2.37;0.2
0;-155.39;-24.18;7.06;64.15;33.39;-18.76;-10.2;-270.4;-118.13;11.89;-64.15;23.55;-14.23;21.12;-25.34;111.71;5.32;10.47;-279.42;-33.58;151.66;-4;-2.75;0.83
0;-17.02;-12.53;7.9;202.51;51.55;-7.71;-8.81;-198.84;-136.68;9.31;500.07;33.24;-12.22;105.68;6.28;82.02;3.92;10.31;-255.07;-36.63;154.48;1.89;4.08;-1
0;-127.8;-17.24;7.64;98.72;25.32;-16.1;-10.35;-266.49;-89.38;12.81;152.3;24.2;-13.13;57.89;-21.52;84.36;4.55;9.43;-263.45;-38.39;88.39;3.44;-1.52;0.24
0;-149.46;-17.6;8.64;81.6;31.48;-23.3;-11.09;-312.63;-155.21;10.87;3.76;30.56;-14.17;31.9;-20.28;92.02;5.74;11.54;-283.07;-38.06;113.8;2.2;-2.73;0.16
0;-145.84;-29.88;6.41;57.41;30.07;-24.92;-7.19;-254.03;-106.24;14.5;-35.05;26.15;-13.87;1.96;-23.62;107;4.58;10.7;-276.58;-36.18;121.74;-4.42;-2.86;1.12
0;-145.68;-25.16;7.25;77.42;24.76;-15.96;-9.34;-263.59;-125.34;12.31;52.34;36.72;-13.65;20.59;-19.63;107.76;4.67;11.64;-296.32;-33.8;195.42;-0.55;-1.97;0.27
0;-58.2;-11.41;7.7;195.23;44.06;-14.25;-11.06;-249.89;-151.77;11;500.2;27.69;-12.33;65.22;2.01;72.44;4.91;11.26;-208.67;-37.7;127.71;-1.49;1.47;-0.01
0;-29.56;-12.58;7.65;205.52;56.8;-16.53;-12.85;-221.87;-159.79;6.89;502.34;25.99;-12.3;120.29;-2.53;54.56;4.6;10.77;-134.6;-37.06;74.7;-0.19;2.55;-0.66
0;-149.54;-22.25;7.7;60.5;33.86;-21.16;-8.94;-246.35;-150.06;11.2;-41.88;22.6;-14.06;22.7;-22.74;94.39;4.66;10.21;-294.88;-37.61;108.24;-1.58;-2.58;0.6
0;-144.78;-27.7;6.64;81.94;25.8;-17.67;-7.67;-268.21;-139.4;12.72;110.09;26.16;-13.61;25.21;-10.46;76.13;4.53;9.39;-199.97;-30.39;143.96;-2.72;-2.09;0.7
0;-55.47;-12.21;7.54;193.84;52.43;-14.64;-10.78;-235.43;-171.03;8.72;500.53;24.66;-11.88;92.37;3.48;85.47;4.25;9.99;-197.27;-38.66;173.23;-0.56;2.11;-0.1
0;-152.47;-33.11;7.16;79.92;31.46;-20.05;-7.82;-309.78;-140.69;11.25;-37.99;29.13;-14.02;-6.34;-9.45;74.45;5.03;10.8;-208.99;-36.71;144.6;-1.14;-2.51;0.67
0;-27.05;-14.51;6.08;186.58;45.06;-16.35;-11.67;-194.4;-123.81;8.76;500.17;29.29;-12.55;90.04;7.5;111.51;4.27;11.23;-283.01;-30.88;213.19;-4.42;2.4;-0.7
0;-143.34;-36.99;6.96;62.94;34.8;-16.55;-9.87;-246.26;-140.49;8.92;3.1;37.64;-13.67;7.66;-8.81;96.56;3.7;11.46;-297.69;-35.9;183.58;-2.88;-1.56;0.78
0;-158.36;-26.87;7.53;76.85;36.87;-22.72;-9.34;-338.13;-146.4;9.81;-44.95;30.39;-14.21;13.06;-13.09;96.92;4.7;11.6;-220.66;-35.42;184.63;-1.94;-2.72;0.32
0;1.13;-0.04;7.94;220.46;56.81;-13.7;-10.21;-233.19;-132.77;8.84;500.42;29.5;-11.48;129.5;19.27;100.4;4.21;10.59;-256.02;-36.42;141.37;3.93;4.37;-1.47
0;-153.25;-33.71;6.44;79.41;20.36;-16.14;-15.15;-295.46;-117.59;15.29;46.15;24.24;-13.57;18.13;-21.6;91.7;5.55;9.68;-202.48;-29.4;124.4;-2.13;-1.99;0.34
0;-154.36;-24.76;7.31;64.09;35.19;-17.46;-11.85;-266.35;-155.2;7.82;-57.22;29.09;-14.13;18.51;-9.2;86.54;3.98;10.82;-214.37;-35.45;133.76;-1.13;-2.17;0.47
0;-148.78;-28.12;7.88;82.91;20.24;-19.18;-14.16;-300.27;-105.5;11.29;64.76;30.09;-13.53;9.28;-3.26;71.49;4.68;10.6;-173.63;-36.85;141.11;1.19;-1.54;0.37
0;-20.21;-9.86;7.37;211.59;61.86;-14.23;-11.55;-212.39;-158.59;6.98;501.51;27.61;-12.55;131.41;-2.49;73.54;4.7;11.36;-222.19;-37.3;120.49;-0.93;2.74;-0.59
0;-137.71;-21.19;6.95;113.78;27.8;-21.04;-5.7;-305.96;-86.57;11.88;220.83;24.18;-12.94;71.61;-24.43;74.11;3.95;11.05;-209.99;-32.03;128.49;-4.29;-2.33;0.34
0;-20.79;-3.62;8.18;204.41;56.62;-16.55;-9.78;-247.35;-174.08;8.97;503.21;36.27;-12.25;107.94;14.85;65.46;4.17;12.06;-189.9;-36.5;133.84;0.73;3.29;-0.96
0;-133.07;-22.88;7.63;106.31;19.61;-18.17;-8.59;-285.56;-76.88;8.3;206.16;26.72;-12.9;48.37;-13.73;75.15;4;9.84;-182.45;-34.11;94.27;-0.07;-1.37;0.06
0;-146.71;-22.69;7.03;49.93;38.14;-18.2;-11.71;-231.04;-152.85;12.17;-61.7;24.74;-13.73;19.96;-24.16;109.81;5.76;10.2;-310.77;-37.18;109.72;-3.95;-2.03;0.49
0;-53.85;-15.89;4.05;172.13;42.23;-17.68;-8.32;-235.2;-131.92;8.72;393.28;32.83;-12.59;69.49;8.07;128.7;4.42;11.9;-322.08;-26.35;231.1;-5.91;2.63;-0.51
0;-141.68;-22.61;6.41;76.62;23.06;-14.05;-7.08;-261.04;-106.01;6.7;73.69;36.92;-13.74;24.77;-13.36;100.34;3.83;11.37;-292.18;-30.22;158.65;-2.75;-0.76;0.15
0;-39.15;-3.06;6.27;214.01;48.91;-21.27;-12.15;-241.12;-105.53;8.1;502.57;26.93;-12.3;107.07;3.86;79.04;5.12;12.07;-232.71;-30.54;149.59;-1.02;1.32;0.06
1;-123.54;-29.99;6.52;59.6;38.8;-19.17;-8.94;-250.48;-148.63;7.95;-38.17;17.38;-12.78;17.13;18.72;59.24;3.85;8.45;-127.55;-31.01;113.41;-2.25;0.3;-0.02
1;-127.83;-23.56;9.15;73.76;33.61;-16.92;-20.08;-299.43;-120.07;12.17;-45.73;36.87;-12.27;35.93;-0.82;118.52;6.78;12.64;-308.85;-36.54;253.35;10.18;-0.69;-0.25
1;-137.13;-16.61;6.17;65.51;26.99;-15.36;-10;-261.74;-115.06;13.53;-40.83;26.4;-12.94;27.04;23.01;82.53;5.18;10.13;-195.22;-30.72;197.79;-5.22;-1.6;0.81
1;-134.89;-23.01;7.96;77.59;25.32;-14.4;-20.65;-277.09;-111.02;11.05;-10;36.53;-12.68;19.77;18.46;98.08;7.07;11.66;-216.11;-37.01;251.56;2.63;-1.28;0.25
1;-155.72;-25.25;7.84;79.21;22.04;-19.4;-14.78;-305.63;-114.28;13.93;-47.93;24.1;-13.94;12.35;14.92;56.9;5.65;9.88;-120.19;-36.5;139.17;-1.4;-2.5;0.96
1;-147.22;-31.39;7.27;71.88;26.98;-20.91;-18.84;-277.73;-79.57;13.03;-58.1;26.92;-13.24;26.09;36.84;36;5.66;10.31;-17.86;-32.32;119.52;3.85;-0.78;0.35
1;-149.33;-21.33;7.5;81.21;22.97;-25.2;-14.92;-305.11;-85.87;13.02;-45.79;32.47;-13.63;10.03;19.38;73.32;6.21;11.96;-188.59;-36.17;150.18;0.9;-2.45;0.93
1;-150.63;-22.79;8.41;57.85;25.49;-14.72;-16.67;-247.17;-138.44;17.14;-71.93;26.4;-13.83;0.93;15.51;66.02;6.93;9.57;-149.16;-38.49;124.77;2.63;-1.52;1.22
1;-164.16;-34.88;8.34;72.57;32.3;-19.96;-14.49;-290.39;-104.79;17.99;-74.64;31.18;-14.45;13.26;21.87;106.34;6.22;12.31;-255.54;-35.72;231.9;4.67;-2.22;0.6
1;-25.26;-22.25;8.65;209.73;61.04;-5.88;-17.13;-292.48;-175.74;13.58;500.7;35.02;-12.77;88.36;0.7;103.54;5.59;9.5;-196.74;-37.3;184.03;2.15;6.24;-1.78
1;48.62;10.77;10.93;275.96;71.25;-30.29;-7.16;-311.23;-197.72;18.3;502.22;14.85;-10.69;111.91;-6.41;110.9;5.46;11.59;-263.13;-39.9;172.74;5.76;1.96;-0.43
1;-80.7;-16.77;9.1;183.25;50.72;-22.93;-18.17;-299.63;-195.46;18.67;484.16;30.32;-13.03;84.71;27.04;96.25;6.27;11.17;-218.34;-38.18;212.37;10.8;0.46;-0.18
1;-148.38;-20.56;8.29;77.19;30.02;-23.34;-17.34;-297.14;-106.49;11.88;-1.59;29.26;-13.98;26.49;7.37;81.72;5.59;11.14;-170.2;-32.92;173.61;11.13;0.32;-0.52
1;-146.42;-17.71;9.26;77.09;27.1;-25.01;-15.87;-291.7;-102.88;12.82;20.07;31.8;-13.99;28.85;-7.37;91.66;5.2;11.84;-182.05;-33.94;193.78;13.31;0.18;-0.3
1;-147.67;-25.11;9.42;73.96;31.68;-18.6;-20.61;-275.82;-135;18.75;32.09;30.84;-14.2;40.48;-0.12;101.76;6.74;11.54;-222.36;-38.46;197.89;12.63;0.05;-0.14
1;-76.92;-25.12;8.78;204.31;65.25;-21.8;-19.17;-358.62;-229.75;16.35;500.5;34.5;-13.77;100.13;-9.79;103.77;6.63;12.51;-329.9;-34.97;175.96;8.78;2.05;-0.6
1;-146.54;-23.22;8.63;89.19;32.93;-24.46;-17.58;-296.31;-130.66;17.99;105.1;31.99;-14.43;55.15;-0.59;78.41;6.43;11.64;-180.49;-37.81;190.27;7.81;0.38;0.04
1;-44.74;-18.16;9.18;192.05;56.5;-22.54;-19.9;-259.23;-194.51;17.42;501.8;28.5;-12.7;81.64;10.98;88.22;6.8;9.96;-233.07;-38.98;170.77;7.46;2.76;-0.96
1;-134.42;-18.8;8.06;111.21;27;-17.44;-15.71;-300.17;-74.12;15.14;227.63;26.57;-13.53;53.95;4.76;70.39;5.4;10.59;-135.67;-37.46;159.18;4.44;-0.16;-0.14
1;-146.32;-13.59;8.43;91.33;22.14;-19.11;-12.23;-301.39;-71.19;11.62;90.82;30.95;-13.56;37.35;-8.69;105.28;5.55;12.05;-260.15;-34.1;209.83;6.13;-0.32;-0.28
1;-149.75;-31.16;10.25;85.07;36.32;-22.84;-27.06;-339.94;-143;14.57;-10.87;32.67;-14.06;47.71;2.56;68.86;7.57;11.8;-200.98;-38.27;143.09;16.15;0.09;-0.14
1;-143;-13.69;7.34;98.42;23.49;-21.85;-14.84;-315.82;-82.97;11.33;86.29;31.33;-13.78;49.27;-3.48;91.51;5.29;12.75;-192.92;-32.76;180.69;3.89;-0.33;-0.29
1;-39.02;-20.05;9.15;208.75;58.1;-23.41;-22.99;-343.74;-211.34;14.79;501.85;32.24;-12.72;83.44;6.21;83.66;6.66;10.36;-204.08;-38.19;130.2;9.6;2.58;-0.8
1;-149.51;-21.68;9.55;84.71;35.36;-21.98;-23.16;-294.34;-122.32;15.8;27.44;29.14;-13.96;41.52;0.27;86.09;7.25;11.32;-204.93;-38.97;166.13;13.68;0.01;-0.62
1;-153.37;-22.86;9.83;75.48;30.28;-16.84;-17.37;-281.16;-105.26;15.95;-42.2;29.24;-14.03;32.11;5.98;69.29;6.25;9.89;-204.03;-37.12;114.74;10.49;-0.41;-0.31
1;-144.34;-27.09;8.47;79.57;28.02;-22.66;-19.4;-289.04;-139.35;15.24;71.7;35.51;-14.17;19.14;-0.37;105.99;6.01;12.46;-260.56;-37.87;274.62;6.52;0.27;-0.21
1;-134.62;-24.31;8.38;99.67;31.9;-21.31;-17.09;-298.42;-121.48;10.98;172.85;33.44;-13.28;34.21;12.89;75.01;5.6;11.96;-144.84;-32.92;194.23;7.77;0.16;-0.34
1;-139.24;-24.33;8.21;108.15;31.39;-24.84;-18.89;-324.09;-169.33;9.36;184.88;31.33;-14.14;45.56;-4.96;94.41;5.52;13.12;-202.5;-35.09;229.97;3.16;0.18;0.11
1;-140.66;-12.45;8.37;95.29;25.16;-23.28;-20.99;-292.23;-69.79;15.04;136.44;29.9;-13.49;50.29;-2.87;84.68;6.47;11.36;-202.13;-34.35;164.1;8.26;-0.58;-0.29
1;-45.88;-23.19;9.4;193.95;61.58;-21.28;-17.1;-253.52;-228.57;11.33;502.44;34.75;-12.46;78.2;2.74;108.52;6.23;11.06;-340.2;-38.86;167.13;4.95;2.41;-0.8
1;-146.37;-18.54;8.65;87.94;31.53;-21.27;-17.41;-293.05;-119.32;15.34;108.39;34.8;-13.95;49.61;-3.89;95.27;6.39;11.97;-200.44;-37.99;193.77;5.9;-0.72;-0.01
1;-154.25;-31.87;9.87;88.55;34.14;-25.04;-21.55;-327.88;-159.77;10.83;43.41;37.24;-14.58;18.73;0.84;81.85;6.45;12.23;-230.82;-38.03;159.95;10.05;-0.38;0.15
1;-78.41;-24.11;9.6;205.43;60.23;-21.17;-16.03;-313.81;-243.03;14.85;500.91;24.7;-13.17;75.64;0.57;84.31;5.86;10.35;-298.26;-38.02;152.43;9.28;1.27;-0.14
1;-145.82;-25.18;8.77;93.55;32.41;-21.14;-11.56;-298.01;-124.94;9.03;22.14;36.04;-14.27;26.76;6.76;86.52;4.33;12.09;-194.38;-35.49;212.43;3.3;-0.49;-0.13
1;-76.76;-12.83;7.65;208.74;51.59;-18.9;-6.81;-320.6;-160.5;10.25;500.33;24.57;-13.92;94.46;9.26;100.85;4.57;11.62;-268.77;-36.68;257.98;1.84;0.57;0.18
1;-141.13;-17.64;8.99;105.9;32.95;-21.56;-18.51;-288.54;-117.84;15.27;193.8;34.35;-13.5;41.57;4.92;91.95;5.84;11.89;-169.13;-37.72;215.09;10.86;0.26;-0.47
1;-138.03;-27.18;7.04;97.93;31.49;-22.32;-20.6;-335.87;-148.83;10.36;144.16;33.91;-14.07;36.36;-3.02;104.62;5.68;12.6;-273.1;-33.45;294.13;4.82;1.1;-0.6
1;-148.64;-17.68;9.25;95.76;27.57;-27.03;-15.08;-322.86;-99.35;12.14;68;34.17;-14.23;37.13;-6.53;94.12;5.59;12.77;-232.07;-38.96;168.85;7.03;-0.64;-0.58
1;-140.95;-16.5;8.33;103.19;31.3;-23.86;-15.57;-298.5;-141.94;12.14;176.67;31.43;-13.89;54.51;-4.17;70.91;5.09;11.82;-159.1;-38.15;156.66;5.3;0.48;-0.23
1;-133.72;-8.16;8;101.62;35.33;-19.43;-14.38;-298.31;-76.42;14.96;171.32;31.59;-13.59;100.03;-3.04;93.6;5.76;11.29;-264.34;-33.82;127.35;7.21;-0.15;-0.49
1;-143.35;-26.2;8.32;92.66;28.86;-28.96;-20.8;-306.17;-99.26;12.25;105.94;34.67;-13.71;25.95;4.18;88.26;5.95;12.27;-238.18;-35.01;180.35;8.29;-0.18;-0.43
1;-134.05;-14.7;7.63;91.56;27.61;-22.2;-15.26;-268.87;-93.51;8.25;148.85;32.23;-13.79;57.46;8.45;88.27;4.77;11.99;-208.25;-35.35;273.86;7.19;0.43;-0.9
1;-150.26;-19.9;7.93;91.68;22.72;-21.73;-18.62;-293.02;-68.59;12.05;102.36;29.85;-13.62;24.76;-14.91;91.24;5.75;11.67;-211.34;-36.54;165.94;4.64;-0.52;-0.01
1;-65.68;-15.77;8.93;224.25;68.49;-25.06;-17.4;-336.16;-219.1;15.33;502.48;35.36;-13.39;116.28;3.58;109.41;6.29;12.9;-258.15;-38.67;236.49;7.26;0.95;-0.16
1;-129.32;-2.68;8.63;133.42;28.06;-17.14;-16.09;-318.58;-53.92;10.36;281.19;32.76;-13.24;66.83;-1.71;75.67;5.44;11.22;-174.19;-36.23;192.66;5.2;-0.31;-0.08
1;-124.12;-20.5;7.31;137.8;31.55;-18.83;-14.95;-299.19;-78.53;7.77;303.7;35.51;-13.16;47.68;-6.96;106.25;5.48;12.37;-320;-31.58;250.82;3.23;0.47;-0.84
1;-123.69;9.19;7.62;148.71;37.83;-18.76;-9.47;-326.48;-43.81;9.64;301.4;15.75;-12.88;126.45;-16.47;98.04;4.6;9.92;-260.7;-36.22;178.21;1.43;-1.52;-0.81
1;-140.05;-35.6;9.71;106.53;32.9;-15.9;-19.97;-295.17;-119.55;13.74;186.53;32.74;-13.77;44.04;6.37;73.84;6.25;10.91;-172.9;-38.77;110.54;10.63;-0.38;0.11
1;-136.08;-19.03;8.61;135.67;36.68;-21.45;-7.02;-315.44;-147.8;14.96;271.85;20.77;-13.92;77.32;9.59;62.66;4.69;10.13;-130.24;-38.09;186.19;-0.26;-0.95;0.67
1;-141.83;-24.54;9.77;100.82;35.68;-18.59;-18.88;-326.49;-159.33;15.82;149.33;33.03;-13.99;41.48;-2.08;77.03;6.59;10.98;-203.76;-38.55;155.15;8.35;0.22;0.15
1;-150.53;-13.25;9.66;98.17;27.32;-22.02;-11.76;-311.55;-104.53;13.47;134.53;30.74;-14;41.97;-18.13;93.25;4.66;11.3;-259.91;-39.89;120.91;6.3;-0.85;-0.07
1;-75.36;-16.95;7.72;217.71;61.46;-19.57;-15.06;-397.35;-230.31;16.57;502.35;35.25;-14.12;99;18.16;132.13;6.41;13.54;-323.16;-33.82;276.69;1.75;1.43;-0.35
1;-127.89;-18.99;8.62;112.91;33.21;-23.19;-14.48;-288.26;-99.21;17.81;202.45;32.26;-13.23;55.64;6.72;78.86;5.41;11.43;-143.09;-35.89;208.46;7.58;0.31;-0.1
1;-127.25;-11.89;7.93;122.2;34.77;-16.94;-9.17;-302.55;-193.86;17.6;243.39;27.89;-13.89;51.83;11.82;93.28;5.52;11.39;-206.49;-35.44;194.28;2.03;0.02;-0.22
1;-143.49;-9.81;7.9;118.42;33.13;-22.29;-12.53;-301.18;-143.54;12.78;226.75;20.96;-13.8;80.51;-16.2;72.11;4.79;9.68;-192.67;-38.64;85.93;2.71;-0.66;0.04
1;-72.26;-11.6;8.36;207.87;62.86;-19.12;-12.15;-326.65;-214.19;12.25;500.41;26.49;-12.81;108.87;11.39;71.86;5.26;11.51;-229.55;-38.78;139.8;3.75;1.2;0.01
1;-80.42;-31.35;8.68;216.78;76.31;-21.21;-17.34;-406.8;-295.49;16.31;500.13;29.95;-13.56;117.86;-5.85;101.35;6.05;11.77;-376.36;-35.92;145.75;4.83;2.49;-0.36
1;-143.33;-20.95;8.99;114.81;28.05;-25.73;-12.35;-310.42;-93.06;13.46;219.57;34.59;-13.76;42.31;0.98;74.17;4.92;12.16;-150.96;-39.44;164.07;4.41;-1.35;0.39
1;-59.42;-15.91;8.29;206.4;49.8;-24.46;-14.26;-290.24;-183.52;11.88;502.09;32.23;-12.89;54.23;2.62;134.21;5.02;12.93;-381.77;-38.59;240.82;3.31;1.37;-0.29
1;-76.06;-22.34;8.73;200.99;60.57;-18.82;-10.05;-315.97;-236.23;11.7;501.7;31.34;-13.11;79.52;8.57;88.07;5.2;11.49;-282.89;-37.82;166.22;5.95;2.2;-0.51
1;-127.8;-14.53;8.72;134.43;31.59;-27.57;-15.59;-326.31;-87.63;18.49;263.18;26.87;-13.5;78.86;-0.54;75.94;5.89;12.11;-189.69;-38.71;124.03;5.23;-0.66;-0.19
1;-53.79;-23.18;9.65;197.03;52.46;-24.34;-10.13;-249.31;-206.16;12.88;502.16;30.15;-12.67;69.08;11.69;99.1;5.46;10.89;-309.77;-38.18;142.76;10.81;2.38;-0.16
1;-39.46;-15.55;6.64;190.89;46.18;-24.15;-9.01;-257.45;-128.91;9.28;500.91;41.38;-12.81;76.18;24.17;203.38;4.41;14.5;-442.92;-35.85;365.99;-3.77;2.83;-1.74
1;-56.73;-24.74;9.17;196.68;50.59;-24.77;-17.29;-274.89;-174.54;19;500.86;37.02;-12.63;53.32;4.52;132.02;7.26;13.64;-276.6;-38.56;238.03;9.29;2.85;-0.47
1;-143.04;-27.68;10.03;107.61;32.19;-20.23;-12.51;-325.55;-120.89;12.04;163.58;35.33;-14.04;31.67;5.08;66.4;5.11;11.83;-164.67;-39.9;96.92;9.75;-1.32;0.43
1;-70.17;-16.34;8.33;211.41;58.93;-21.44;-9.68;-300.21;-196.56;14.74;502.55;27.7;-13.22;91.03;9.08;72.28;5.1;11.6;-235.14;-38.09;104.53;2.82;1.67;0.01
1;-51.39;-14.22;10.04;218.1;69.25;-22.85;-13.92;-321.4;-236.03;16.06;501.92;28.84;-12.32;121.08;2.65;84.09;5.86;11.1;-259.46;-38.61;97.82;11.59;2.69;-0.53
1;-75.4;-23.99;9.68;211.47;74.87;-23.91;-14.13;-422.59;-283.23;15.92;500.61;24.48;-13.1;101.68;-3.09;87.79;6.2;11.37;-330.78;-38;150.78;12.96;1.95;-0.29
1;-144.12;-21.1;9.48;99.64;35;-28.28;-10.79;-310.11;-136.61;9.27;115.67;29.33;-14.1;52.27;8.73;68.37;4.28;11.45;-155.81;-41.32;102.76;11.72;-1.35;0.07
1;-141.98;-10.22;7.85;109.34;38.39;-24.3;-9.77;-317.09;-183.05;11.7;150.9;37.42;-14.55;86.14;-1.57;122.97;5.18;14.06;-260.51;-35.94;279.26;1.08;-0.62;-0.35
1;-133.9;-9.82;9.97;122.79;37.08;-18.22;-11.43;-325.45;-161.45;17.68;217.06;30.9;-13.82;79.16;-18.09;91.54;5.52;11.81;-276.33;-38.48;129.79;8.57;0.13;0.16
1;-68.46;-9.33;7.61;197.36;61.44;-20.76;-12.79;-315.61;-222.96;13.45;501.23;21.27;-12.85;109.05;12.88;62.91;4.98;10.99;-212.57;-38.03;103.14;1.04;1.65;-0.56
1;-50.03;-8.59;11.81;219.72;75.09;-27.01;-16.47;-344.83;-244.97;16.7;500.37;30.75;-11.38;116.9;24.49;80.47;6.46;12.66;-235.52;-37.95;186.7;20.64;1.78;-1.05
1;-66.29;-26.69;9.73;206.76;75.55;-26.53;-15.87;-320.98;-282.23;17.07;500.32;29.01;-12.78;110.75;2.55;124.89;6.3;12.42;-450.48;-38.67;131.45;9.34;1.52;-0.79
1;-68.96;-20.57;10.27;217.62;74.97;-24.62;-13.65;-346.13;-258.48;12.44;501.37;32.15;-12.89;117.28;-3.06;100.13;5.39;12.52;-326.42;-38.62;174.44;10.46;1.95;-0.73
1;-145.77;-13.66;8.94;107.7;26.89;-21.4;-9.85;-302.5;-78.54;11.7;210.07;33.71;-14.07;39.98;-5.75;80.05;4.12;11.84;-146.98;-38.37;184.22;5.59;-0.59;0.07
1;-148.28;-13.52;9.14;103.94;34.02;-28.03;-15.77;-309.57;-135.43;15.22;172.42;32.27;-14.34;69.14;-4.44;79.59;5.45;12.58;-168.12;-38.8;179.99;10.46;-0.08;-0.65
1;-143.25;-18.19;10.05;101.28;32.03;-24.66;-15.85;-311.58;-129.52;12.16;137.22;32.46;-13.87;59.93;-0.25;78.86;5.2;12.43;-154.34;-40.23;210.44;14.64;0.22;-0.43
1;-138;-22.59;7.39;101.38;31.1;-24.74;-16.02;-287.56;-134.32;12.23;159.3;33.32;-14.46;61.08;-3.68;111.24;5.18;12.99;-265.34;-30.55;276.19;2.18;0.79;-0.74
1;-39.95;-4.59;10.13;208.11;61.64;-23.94;-12.64;-258.81;-180.18;14.49;501.72;32.6;-12.06;110.39;25.44;82.48;5.49;11.7;-132.46;-39.42;194.17;12.42;2.81;-1.32
1;-62.33;-21.53;11.65;198.97;66.78;-23.65;-18.35;-319.77;-217.2;12.75;500.23;33.95;-12.77;103.86;22.23;107.27;6.53;12.37;-222.17;-38.82;237.42;18.81;2.16;-1.26
1;-129.89;-11.89;7.99;121.66;40.6;-24.22;-11.69;-306.47;-116.62;10.51;237.71;36.59;-14.31;117.96;-7.9;126.28;4.71;13.75;-333.03;-35.22;328.07;5.86;1.01;-0.85
1;-143.99;-22.66;9.56;97.8;37.49;-22.71;-15.68;-309.01;-127.92;13.54;158.63;32.66;-13.89;50.45;-0.16;75.67;5.74;11.9;-191.87;-38.64;149.95;14.1;-0.18;-0.32
1;-147.81;-21.79;10.06;111.14;35.61;-28.97;-19.72;-331.52;-116.18;15.09;173.28;35.83;-14.42;47.48;-0.01;93.2;6.2;13.19;-188.58;-39.51;210.14;12.36;-0.47;-0.36
1;-44.12;-19.71;10.35;212.96;74.57;-21.14;-18.26;-341.88;-250.58;12.14;501.62;33.66;-11.94;118.27;5.47;75.14;6.41;10.79;-178.96;-37.87;119.46;13.24;3.17;-0.99
1;-137.75;-28.89;7.75;110.81;34.82;-24.26;-10.07;-324.18;-102.48;9.44;204.37;35.31;-14.48;41.71;3.49;76.37;4.44;12.81;-185.22;-37.7;198.14;3.57;0.98;-0.14
1;-125.39;-22.14;8.99;119.91;29.96;-21.35;-7.47;-292.83;-85.28;6.67;234.92;26.83;-13.07;50.66;14.12;40.4;3.52;10.78;-75.09;-30.49;66.98;13.16;1.05;-0.49
1;-124.93;-11.15;9.21;137.19;36.18;-24.29;-12.46;-319.98;-86.96;6.43;267.78;35.14;-13.24;98.49;-7;78.14;4.62;13.23;-142.46;-33.1;178.01;14.56;0.54;-0.64
1;-63.77;-28.02;9.42;215.14;77.25;-28.04;-20.18;-344.24;-282.2;13.39;501.69;22;-12.89;87.58;3.42;116.17;6.55;12.72;-391.01;-38.46;161.55;9.28;2.38;-0.76
1;-43.68;-21.8;8.46;193.99;61.48;-17.35;-12.95;-283.55;-166.88;5.77;500.06;39.46;-12.18;112.13;21;105.11;5;11.81;-297.17;-36.87;186.94;4.19;4.53;-1.55
1;-135.55;-15.88;11.06;128.49;49.12;-30.86;-13.95;-343.27;-104.7;9.4;248.4;37.81;-14.49;150.11;-8.13;95.01;5.56;14.75;-224.96;-36.9;140.67;15.29;0.83;-0.93
1;-126.86;-11.14;9.39;124.61;37.98;-25.19;-11.24;-330.31;-90.47;8.47;234.39;34.4;-13.12;102.07;5.83;70.18;4.57;12.76;-136.58;-29.43;113.95;17.25;0.48;-0.64
1;-123.68;-14.22;9.95;146.7;41.16;-26.61;-12.09;-331.34;-81.41;11.84;317.24;28.38;-13.41;105.51;7.41;50.29;4.64;12.26;-106.23;-37.58;70.85;12.55;0.52;-0.43
1;-53.4;-19.48;9.93;200.24;61.61;-20.97;-11.62;-298.16;-221.31;13.11;500.48;33.22;-12.48;89.7;-7.16;83.42;5.43;11.43;-230.7;-39.58;102.68;11.75;1.94;-0.82
1;-70.23;-17.47;9.55;227.28;67.82;-27.78;-11.96;-334.33;-233.94;13.16;502.34;30.31;-13.7;111.3;2.41;80.86;5.55;12.82;-265.14;-39.32;130.32;7.03;1.01;-0.12
1;-57.57;-24.81;11.88;215.72;75.51;-25.36;-12.61;-393.91;-293.4;11.53;500.85;30.77;-12.08;88.01;3.65;87.9;5.1;11.67;-288.14;-39.12;128.94;20.41;2.34;-0.99
1;-126.2;-26;9.34;107.79;29;-24.07;-9.41;-285.24;-97.5;8.75;207.46;28.59;-13.45;40.55;14.59;41.64;3.94;10.57;-50.83;-36.6;93.73;10.9;0.79;-0.09
1;-122.21;-25.62;8.76;114.84;38.58;-20.92;-20.42;-272.48;-100.45;9.02;230.19;38.08;-13.62;83.23;1.49;100.31;5.42;12.96;-279.81;-33.68;287.07;9.73;1.62;-0.7
1;-136.77;-15.85;10.45;124.06;41.74;-24.05;-12.76;-314.7;-134.97;11.66;242.28;31.84;-13.41;86.32;0.92;85.91;5.26;11.73;-188.12;-32.51;157.01;20.18;0.07;-0.55
1;-73.21;-21.14;9.75;204.78;70.57;-23.8;-13.75;-304.35;-249.37;17.88;501.67;28.92;-12.92;108.67;-5.1;92.71;6.68;12.22;-322.1;-39.14;119.14;9.69;2.19;-0.28
1;-63.63;-18.95;11.62;226;85.93;-26.18;-17.78;-375.16;-267.85;15.39;500.37;35.48;-12.78;161.64;5.45;81.06;6.59;13.33;-237.18;-40.31;146.02;18.01;1.61;-1.03
1;-117.52;-15.17;9.46;146.85;41.72;-26.86;-11.5;-338.77;-182.59;15.42;264.27;28.51;-14.14;100.1;19.5;80.68;5.2;13.06;-137.24;-38.75;168.3;4.05;0.66;-0.07
1;-130.62;-22.63;10.5;125.06;40.11;-22.84;-17.17;-340.78;-194.41;17.84;223.43;36.77;-13.96;63.9;-0.54;82.68;6.59;13.48;-188.24;-40.22;189.27;15.3;0.26;0.26
1;-125.16;-17.84;8.88;132.09;43.24;-23.14;-11.22;-311.88;-185.87;16.61;272.97;29.24;-14.29;108.15;4.53;80.38;5.2;12.91;-172.57;-36.7;192.6;4.51;1.18;-0.04
1;-41.37;-6.85;10.35;216.47;75.58;-22.86;-15.89;-316.25;-212.3;11.54;500.87;38.7;-12.53;150.57;18.99;95.94;6.55;13.23;-227.99;-39.49;192.39;12.62;2.39;-1.26
1;-59.78;-23.88;9.56;209.71;65.21;-26.2;-13.08;-320.83;-266.99;15.17;502.36;29.25;-12.84;63.6;6.45;127;5.57;13.25;-446.11;-39.15;192.78;8.31;1.67;-0.72
1;-139.71;-11.07;8.61;103.47;27.11;-26.35;-9.91;-319.18;-74.03;9.24;169.89;36.72;-13.72;49.81;4.31;90.51;4.36;12.86;-167.32;-34.01;196.99;8.46;-0.17;-0.32
1;-63.25;-20.44;10.12;211.76;64.83;-25.19;-14.33;-346.04;-243.17;15.27;502.4;29.76;-12.38;68.88;8.94;102.64;5.46;11.84;-353.87;-38.54;177.93;13.35;2;-0.68
1;-57.31;-17.23;12.01;198.98;72.76;-23.43;-18.63;-351.24;-266.77;16.04;501.34;33.78;-11.54;113.36;34.78;105;6.36;11.86;-308.69;-39.11;308.45;21.13;2.82;-1.48
1;-135.58;-24.15;8.45;103.3;28.79;-27.31;-9.09;-299.26;-74.28;7.46;168.69;33.54;-13.64;49.22;12.62;65.46;3.98;12.38;-132.82;-32.53;125.53;10.1;0.31;-0.18
1;-60.36;-12.81;10.75;208.47;70.67;-26.15;-11.41;-316.06;-247.63;9.57;500.71;35.62;-12.01;102.23;17.06;101.58;5.13;13.09;-288.4;-39.49;193.88;13.15;1.25;-0.56
1;-64.64;-19.48;10.09;208.73;75.04;-22.28;-14.35;-317.12;-257.23;15.37;503.06;36.77;-12.56;116.55;11.34;71;6.12;12.33;-232.67;-39.3;88.28;12.63;1.48;-0.7
1;-134.71;-18.98;11.03;121.75;37.64;-22.57;-17.37;-316.78;-111.71;17.51;225.45;34.09;-13.47;76.16;3.77;60.36;6.02;12.39;-94.97;-36.88;160.83;18.69;0.89;-0.24
1;-129.49;-20.01;8.57;111.81;39.22;-25.07;-10.39;-288.27;-98.05;5.93;226.65;37.68;-14.17;109.52;7.39;102.61;4.38;13.22;-311.3;-34.21;257.69;10.74;0.93;-1.01
1;-138.13;-10.23;10.4;129.46;43.21;-25.35;-13.72;-327.93;-87.15;10.18;253.78;23.27;-13.39;127.18;-6.68;72.87;5.22;11.57;-176.87;-32.12;102.14;17;-0.23;-0.91
1;-58.21;-11.86;9.5;202.27;50.02;-28.05;-14.7;-293.88;-177.43;9.42;500.51;28.95;-12.37;59.26;26.48;133.84;5.35;12.62;-336.42;-39.29;361.33;12.78;1.58;-1.1
1;-52.15;-19.81;11.26;204.12;72.53;-25.08;-13.6;-318.18;-250.87;10.97;500.52;28.13;-12.18;114.04;9.17;104.96;5.54;10.52;-335.2;-40.18;138.23;19.54;2.88;-1.07
1;-135.73;-14.99;9.13;128.89;31.67;-22.67;-11.98;-314.64;-74.57;5.66;263.9;37.11;-13.46;77.76;-13.78;90.01;4.09;12.88;-169.57;-32.47;172.67;8.76;0.82;-0.61
1;-129.85;-21.23;9.83;128.37;31.44;-25.65;-14.92;-313.29;-87.2;11.6;267.98;31.77;-13.4;55.84;8.78;52.85;4.66;12.5;-68.74;-30.81;114.35;16.32;0.76;-0.47
1;-31.94;-10.12;10.79;217.17;80;-24.44;-14.28;-303.65;-246.33;14.21;501.22;32.14;-11.73;152.01;5.7;87.63;5.97;10.29;-268.76;-38.02;106.29;14.03;3.74;-0.91
1;-127.4;-18.45;9.77;132.71;39.47;-26.43;-9.81;-299.98;-85.53;16.55;283.06;28.42;-13.49;102.4;11.1;55.39;5.4;11.74;-78.74;-34.5;110.05;13.56;-0.01;-0.08
2;-139;-22.43;7.75;66.51;19.91;-15.43;-14.37;-251.08;-62.19;6.73;-33.1;32.95;-12.74;5.14;24.49;80.46;5.05;12.7;-197.16;-27.94;215.61;8.91;1.35;-1.28
2;-143.99;-20.41;7.18;60.39;24.88;-15.26;-5.47;-262.7;-102.78;7.59;-59.6;20.41;-13.73;27.04;11.89;35.41;3.79;9.73;-73.3;-29.29;75.69;2.9;0.34;0.25
2;-136.84;-32.29;9.27;70.31;31.93;-16.32;-9.12;-336.04;-143.94;10.3;-52.94;29.05;-12.61;0.23;2.11;71.26;4.53;10.84;-149.68;-32.5;131.67;9.85;1.75;-0.14
2;-145.65;-26.07;8.71;57.99;25.17;-15.21;-18.79;-292.6;-84.93;6.89;-52.28;31.92;-12.82;7.94;6.91;65.01;5.5;11.6;-149.81;-31.08;107.74;8.95;1.2;-0.78
2;-136.66;-25.43;8.05;58.89;23.84;-17.19;-13.42;-268.18;-78.4;5.44;-47.53;30.55;-12.83;14.4;12.21;72.22;4.02;11.87;-155.5;-26.66;103.45;7.33;0.91;-0.66
2;-139.11;-23.93;8.77;59.9;26;-15.08;-12.49;-310.76;-76.59;5.5;-58.61;27.45;-12.16;18.53;3.11;56.57;3.86;10.49;-125.51;-32.18;94.96;8.05;1.29;-0.49
2;-138.26;-24.56;8.07;59.56;22.67;-18.11;-9.27;-294.2;-88.67;6.06;-43.08;30.3;-12.63;10.47;12.56;69.85;3.77;11.58;-142.48;-29.55;112.11;5.12;1.29;-0.41
2;-144.68;-35.96;8.3;66.06;28.78;-16.03;-16.68;-373.17;-122.17;5.89;-48.46;33.35;-12.91;12.24;13.92;78.85;4.76;11.82;-185.08;-29.5;118.78;6.29;1.1;-0.42
2;-144.7;-31.83;6.7;58.63;26.1;-17.52;-7.01;-331.17;-121.22;6.68;-57.56;29.54;-13.61;7.73;18;63.08;3.62;11.19;-105.09;-28.1;130.97;-2.05;0.87;-0.18
2;-141.74;-35;6.39;64.4;25.96;-16.45;-9.7;-356.83;-105.94;9.37;-42.8;40.81;-13.6;5.58;16.85;109;4.17;13.45;-307.86;-27.15;212.62;-2.9;1.2;-0.07
2;-152.45;-30.39;9.54;62.97;30.21;-19.58;-13.32;-346.24;-85.21;10.08;-63.3;28.39;-13.71;23.19;5.98;63.31;4.52;11.35;-133.66;-34.75;104.77;10.07;1.34;-0.12
2;-148.76;-24.32;10.5;59.12;30.5;-20.33;-11.62;-269.71;-105.87;7.75;-53.26;30.49;-13.07;14.44;10.74;64.35;4.23;12.18;-113.06;-37.48;121.36;16.28;1.5;-0.46
2;-150.16;-25.54;8.55;67.7;24.84;-19.94;-14.27;-345.98;-81.77;10.32;-49.09;30.19;-13.54;19.67;6.37;76.53;4.44;12.44;-138.23;-34.14;103.66;7.84;0.96;-0.52
2;-156.11;-17.99;8.91;58.25;25.19;-14.61;-13.91;-282.05;-70.22;11.82;-67.23;25.82;-13.26;30.65;9.77;41.69;4.95;10.48;-71.13;-33.96;87.26;7.85;0.13;-0.54
2;-144.17;-24.79;8.64;58.56;26.13;-19.07;-14.35;-277.63;-76.07;9.83;-51.76;30.2;-13.3;12.08;12.78;61.1;4.56;12.01;-117.74;-32.04;92.12;4.81;0.18;-0.35
2;-136.79;-27.92;7.81;56.42;26.81;-19.71;-8.04;-265.29;-84.13;6.53;-49.66;26.19;-13.67;24.52;21.46;53.89;3.74;11.21;-108.44;-31.94;116.58;4.14;-0.36;0.19
2;-147.42;-21.79;6.96;69.47;27.43;-21.12;-6.8;-291.5;-97.14;6.51;-50.01;30.66;-13.71;32.07;7.93;76.5;3.6;12.62;-147.76;-28.53;130.44;2.07;0.16;0.36
2;-141.22;-36.17;7.34;62.43;25.04;-22.17;-10.73;-307.56;-95.48;6.5;-54.56;38.61;-13.73;0.74;13.86;111.81;3.73;14.2;-274.78;-25.91;214.73;4.97;0.89;-0.4
2;-149;-21.22;9.08;66.42;27.79;-16.67;-12.64;-346.57;-87.03;6.84;-46.13;30.58;-13.36;17.92;10.36;52.81;4.14;12.05;-112.99;-34;81.96;8.73;0.69;-0.35
2;-149.28;-20.66;8.56;55.58;27.55;-18.24;-20.42;-265.2;-84.53;8.04;-61.13;31.41;-13.44;25.27;-1.65;65.14;5.61;11.9;-144.21;-29.86;95.73;8.11;0.59;-0.21
2;-149.98;-26.85;6.56;63.97;26.73;-21.03;-11.57;-271.82;-91.56;7.23;-54.67;30.7;-13.88;22.18;7.57;76.91;4.25;12.45;-144.77;-25.46;115.79;2.61;0.53;-0.34
2;-149.7;-22.65;8.32;60.97;26.74;-16.8;-14.07;-311.55;-76.05;9.16;-50.79;35.7;-13.71;32.13;0.32;72.24;4.67;12.91;-155.64;-31.46;134.25;4.48;1.04;-0.69
2;-150.22;-27.59;7.3;74.92;26.96;-14.95;-18.28;-346.83;-105.5;12.23;28.95;34.49;-14.06;14.62;-2.88;68.63;5.4;12.18;-192.19;-30.15;126.59;1.37;0.97;0.08
2;-154.33;-31.06;7.58;76.46;31.79;-16.32;-13.48;-396.2;-152.11;8.31;3.68;28.42;-14.31;16.25;1.6;50.92;4.47;11.41;-141.46;-30.84;81.37;2.61;1.06;0.26
2;-149.51;-23.09;7.84;69.48;31.76;-21.9;-13.24;-382.15;-139.53;8.89;-38.45;29.24;-14.34;36.02;5.14;65.07;4.63;12.6;-135.88;-28.59;115.01;3.17;0.57;-0.01
2;-134.57;-25.96;7.57;72.8;26.68;-18.94;-11.93;-355.16;-122.94;8.5;50.38;32.18;-13.85;11.76;11.73;66.51;4.21;12.85;-179.93;-31.14;133.27;0.97;1.15;0.29
2;-140.03;-25.3;6.83;61.26;25.49;-18.47;-4.8;-284.58;-104.24;7.52;-38.41;24.1;-13.64;12.82;13.23;44.73;3.27;10.87;-108.03;-30.23;59.11;-0.13;0.9;0.56
2;-138.44;-32.04;8.43;80.55;25.77;-21.9;-11.55;-292.86;-80.5;8.56;64.48;34.58;-13.15;4.24;5.34;76.19;4.21;12.94;-145.43;-31.66;105.55;6.69;1.01;0.17
2;-154.11;-28.64;7.3;67.08;28.31;-25.19;-16.81;-337.58;-104.63;7.93;-44.4;32.62;-13.8;15.33;12.52;85.93;4.96;13.13;-159.34;-27.5;131.96;0.25;0.91;-0.36
2;-154.07;-33.92;7.34;71.66;25.52;-24.17;-7.91;-300.18;-117.35;7.2;-6.19;24.18;-14.75;4.39;-6.67;78.99;3.27;12.6;-172.48;-29.11;116.74;2.17;0.68;0.84
2;-149.16;-31.72;8.32;66.67;29.3;-18.98;-9.25;-330.65;-99.97;9.06;-43.01;24.38;-13.88;19.02;3.06;52.63;3.79;10.65;-112.2;-33.63;93.5;2.49;-0.2;0.4
2;-148.85;-41.22;6.38;74.21;30.26;-20.4;-9.11;-356.09;-165.53;7.66;-40.8;20.81;-14.05;-2.19;15.33;39.15;3.68;10.81;-72.77;-26.62;99.01;-3.06;0.27;0.24
2;-128.46;-25.17;7.4;55.87;27.63;-20.79;-11.14;-269.55;-81.73;10.1;-47.65;31.68;-13.06;14.79;18.81;66.32;4.14;12.15;-111.88;-27.65;128.9;-2.25;-0.43;0.02
2;-145.54;-35.14;6.94;64.23;26.06;-20.7;-7.95;-315.17;-112.73;6.1;-60.13;23.4;-13.81;6.1;6.15;48.93;3.26;10.69;-103.76;-27.32;75.84;-0.41;0.41;0.57
2;-153.39;-28.28;8.61;76.26;27.66;-19.9;-7.32;-321.31;-97.98;6.57;-34.79;23.67;-13.59;14.28;14.32;57.63;3.59;11.77;-134.19;-32.73;92.3;5.99;0.64;0.02
2;-137.19;-33.3;8.7;70.26;29.5;-22.11;-7.02;-319.72;-135.76;6.85;25;32.24;-14.01;2.99;18.12;67.05;3.49;13.05;-138.1;-32.91;102.13;4.85;1.07;0.59
2;-142.6;-22.16;7.34;63.99;23.21;-20.66;-5.28;-282.07;-59.37;7.67;-14.65;30.26;-13.98;21.81;-2.37;71.7;2.84;12.35;-134.02;-27.58;101.67;2.09;0.26;0.22
2;-155.02;-30.02;6.57;65.48;25.5;-20.3;-11.07;-364.01;-116.03;6.32;-72.22;21.85;-13.87;6.67;2.05;52.13;3.58;10.89;-120.34;-28.13;75.25;-0.01;0.34;0.2
2;-146.92;-23.28;8.3;65.09;27.48;-18.6;-12.5;-305.85;-78.66;9.07;-49.08;29.15;-13.9;13.98;10.8;57.71;4.35;11.81;-131.78;-30.77;83.44;4.54;0.6;-0.08
2;-149.25;-28.13;9.51;71.21;28.45;-20.71;-12.9;-302.41;-70.95;8.75;-12.51;31.59;-13.4;28;2.9;62.34;4.49;12.42;-142.84;-34.75;109.59;11.18;0.24;-0.16
2;-154.73;-28.98;8.44;75.9;38.9;-18.98;-10.2;-414.8;-180.54;12.77;-62.52;24.05;-13.77;39.3;-2.14;59.39;4.53;11.02;-133.39;-33.68;93.58;4.55;0.35;0.5
2;-141.66;-36.16;6.48;67;29.32;-20.58;-9.79;-383.95;-149.44;6.14;-59.9;32.21;-13.8;6.73;20.59;65.94;3.54;12.17;-151.94;-25.4;101.71;-4.52;0.94;0.45
2;-152.16;-32.5;6.7;75.19;32.68;-19.74;-9.38;-385.53;-162.51;7.27;-49.29;29.27;-13.82;11.98;1.8;60.72;3.8;11.9;-138.32;-28.93;79.29;-2.62;0.57;0.45
2;-146.68;-34.76;5.65;71.68;32.72;-21.39;-6.49;-348.34;-164.18;6.06;-32.5;24.87;-13.91;14.41;21.76;55.89;2.91;11.48;-104.73;-23.38;88.99;-6.44;0;0.42
2;-154.18;-36.77;8.86;86.49;37.98;-23.39;-10.91;-423.43;-174.02;10.13;-35.41;28.12;-13.6;14.89;-1.69;80.88;4.31;12.38;-190.76;-33.14;121.25;4.67;0.98;0.31
2;-127.13;-23.82;6.27;59.35;28.56;-20.65;-5.68;-253.3;-86.39;9.27;-39.49;25.76;-13.54;19.97;18.29;61.42;3.55;11.35;-137.95;-25.94;84.14;-5.96;0.18;0.81
2;-151.63;-24.45;6.97;61.42;23.19;-19.32;-10.38;-266.66;-70.65;9.74;-53.59;31.45;-14.06;25.29;6.97;59.56;4.18;12.76;-116.74;-28.88;93.22;1.85;0.92;0.06
2;-152.15;-28.75;8.12;68.9;28.11;-19.61;-13.4;-317.69;-75.87;11.56;-46.61;34.88;-13.91;18.28;14.54;72.36;4.93;13.28;-118.09;-30.14;134.8;5.07;0.82;-0.21
2;-158.57;-28.71;7.78;74.12;30.74;-20.85;-12.81;-384.65;-149.32;11.41;-56.63;27.07;-14.08;15.22;13.45;54.5;4.93;12.42;-118.35;-30.31;74.06;3.44;0.5;0.47
2;-148.53;-33.05;7.98;65.43;26.3;-18.28;-11.25;-300.47;-83.06;8.54;-52.47;37.65;-14.04;19.03;17.44;71.76;4.5;13.12;-152.25;-30.31;153.9;2.54;1;-0.29
2;-149.84;-20.48;9.54;69.37;29.33;-18.87;-10.72;-316.38;-88.94;11.23;-43.82;19.6;-13.81;24.19;9.02;61.05;4.67;11.22;-142.77;-36.79;82.31;8.82;0.39;0.53
2;-152.88;-36.77;6.85;73.61;33.91;-23.94;-8.45;-355.07;-178.14;10;-47.72;29.01;-14.27;13.07;13.3;69.69;4.57;12.68;-150.41;-27.07;100.47;-0.77;0.78;0.98
2;-145.35;-30.56;7.06;69.35;34.93;-26.41;-4.57;-369.75;-144.99;5.18;-63.31;29.88;-13.78;25.61;16.22;73.4;2.9;12.54;-173.24;-26.05;101.42;0.41;0.93;0.34
2;-146.72;-26.78;8.82;75.03;30.65;-28.2;-9.38;-358.2;-117.77;9.24;-33.95;30.39;-14.2;28.77;16.3;74.39;4.72;13.3;-151.37;-33.41;113.87;6.1;0.4;0.42
2;-155.97;-26.69;8.1;68.9;31.86;-19.19;-7.42;-348.19;-149.32;8.27;-65.11;26.26;-14.11;19.15;14.29;47.69;3.86;11.15;-107.66;-31.01;67.16;2.36;0.15;0.65
2;-156.81;-27.6;7.76;66.97;30.48;-20.42;-10.67;-355.92;-133.03;6.76;-64.35;29.92;-14.33;24.56;4.5;68.83;3.94;12.06;-146.74;-29.48;113.62;3.3;0.7;0.11
2;-162.12;-34.32;9.98;79.38;34.8;-23.04;-12.03;-379.06;-119.4;9.15;-58.52;28.04;-14.1;17.45;-1.52;60.94;4.84;12.63;-154.12;-35.84;65.25;11.96;0.53;0.37
2;-155.57;-27.21;7.72;68.7;27.41;-27.21;-8.07;-313.74;-73.93;6.61;-69.07;30.38;-14;29.4;2.77;79.26;3.82;13.43;-171.95;-28.68;110.93;4.94;0.59;-0.08
2;-152.88;-33.96;7.4;76.12;36.15;-22.4;-6.86;-409.79;-171.07;7.68;-43.2;32.1;-13.83;17.38;16.1;79.44;3.77;13.27;-154.62;-28.23;109.19;-0.56;0.31;0.16
2;-159.52;-39.43;8.11;69.78;27.37;-21.26;-9.66;-358.64;-132.93;7.78;-51.63;23.06;-15.11;6.83;4.45;52.53;4.09;11.86;-135.88;-31.99;78.74;5.43;0.95;0.51
2;-159.76;-31.26;8.95;72.98;33.5;-22.1;-10.11;-288.22;-92.73;8.65;-47.32;30.12;-14.81;52.09;17.73;57.73;4.19;12.75;-123.16;-33.82;77.54;6.12;0.5;0.04
2;-141.43;-27.86;7.67;59.5;26.02;-22.79;-7.42;-312.52;-100.76;7.32;-51.05;27.05;-13.83;23.31;12.92;59.38;3.85;11.51;-126.24;-27.83;101.74;0.51;0.04;0.66
2;-156.1;-29.51;9.53;70.56;29.64;-22.43;-10.42;-315.34;-119.79;9.85;-39.69;22.44;-13.93;9.29;18.52;68.74;5.1;12;-153.71;-36.77;127.3;8.66;-0.31;1.3
2;-160.19;-35.39;6.04;72.46;23.2;-19.28;-10.6;-316.71;-87.53;6.41;-67.48;31.64;-13.81;2.25;0.49;73.45;4.03;12.62;-150.02;-25.73;105.81;-0.45;0.91;0.5
2;-157.15;-24.84;9.53;73.66;29.88;-20.84;-13.26;-352.49;-121.78;7.58;-49.81;22.27;-13.95;27.17;2.02;56.94;4.42;11.82;-146.02;-36.57;66.35;9.27;0.56;0.17
2;-156.47;-30.37;8.55;66.1;27.82;-24.99;-10.55;-318.51;-81.5;9.17;-60.92;33.03;-13.93;12.25;33.11;69.86;4.67;12.99;-105.16;-30.77;139.94;6.94;-0.13;0.17
2;-156.66;-18.31;8.62;73.61;29.84;-26.76;-11.71;-322.2;-105.7;8.68;-55.56;34.45;-14.16;28.22;-1.02;74.96;5.11;14.47;-159.99;-31.53;133.54;6.13;0.86;-0.02
2;-128.01;-21.44;9.22;82.94;28.88;-24.97;-12.81;-334.53;-123.94;9.04;87.44;27.82;-14.41;22.9;24.75;85.35;4.82;13.61;-171.93;-37.47;160.29;3.34;-0.43;-0.21
2;-147.04;-29.63;5.37;66.61;24.44;-24.16;-8.87;-285.51;-129.35;8.74;40.23;36.73;-14.7;-0.17;7.09;78.41;4.05;13.83;-226.32;-25.85;158.84;-5;1.55;0.79
2;-155.49;-20.79;9.62;70.92;25.45;-23.08;-10.29;-300.94;-82.24;9.19;-45.44;26.98;-13.34;23.72;8.03;76.37;4.58;13.11;-147.5;-30.92;117.25;12.49;0.87;0.26
2;-155.35;-36.17;8.08;73.87;29.97;-22.54;-12.83;-404.75;-147.23;7.39;-56.4;32.2;-13.82;9.85;5.14;81.89;4.49;13.08;-147.84;-29.84;152.14;7.04;1.54;0.38
2;-153.3;-34.06;6.42;73.37;32.24;-25.99;-6.57;-358.49;-157.51;6.44;-57.16;27.25;-14.03;25.35;16.15;75.23;3.12;12.82;-169.84;-27.77;104.43;-1.2;0.37;0.44
2;-160.91;-42.36;7.9;67.14;34.72;-21.09;-7.95;-336.25;-193.77;7.96;-67.17;22.43;-14.28;0.22;16.31;54.93;4.03;10.87;-122.83;-32.42;91.4;4.59;0.13;0.67
2;-155.24;-35.36;7.43;64.96;26.44;-22.23;-7.85;-308.71;-115.69;10.05;-56.64;24.15;-14.37;4.89;16.49;59.42;4.26;11.75;-138.06;-32.93;89.96;1.64;0.1;0.69
2;-148.91;-29.86;7.61;69.1;33.29;-20.86;-10.83;-384.78;-173.4;9.01;-45.56;37.15;-13.75;14.98;9.73;88.56;4.42;13.42;-238.18;-28.45;138.7;2.36;0.98;0.23
2;-155.76;-26.7;8.59;71.25;32.82;-23.39;-10.06;-347.47;-152.25;10.59;-11.33;29.04;-14.54;15.88;19.51;61.24;4.4;13.02;-116.79;-33.63;116.57;4.26;0.67;0.48
2;-159.57;-20.65;9.1;69.47;33.33;-22.99;-11.13;-361.59;-144.93;9.77;-60.68;27.46;-14.39;23.92;3.94;63.36;4.68;12.49;-158.13;-34.42;75.7;5.02;0.48;0.38
2;-157;-24.69;9.56;70.5;29.66;-22.48;-11.86;-336.19;-112.01;8.57;-52.63;33.59;-13.72;24.38;10.26;80.86;4.73;13.29;-175.99;-33.23;110.21;9.38;0.81;0.04
2;-161.72;-25.47;8.65;73.66;38.31;-22.94;-6.92;-402.25;-142.83;7.61;-72.5;23.63;-13.81;40.47;4.44;71.26;3.63;11.87;-183.01;-34.41;83.21;5.79;0.43;0.15
2;-143.26;-24.73;6.93;69.26;28.52;-26.19;-8.4;-287.18;-95.5;8.54;-35.13;23.14;-13.76;28.41;12.28;76.91;4.02;12.77;-180.25;-26.74;109.33;-3.39;-0.32;0.2
2;-157.02;-36.07;8.36;64.22;28.5;-20.01;-7.57;-346.93;-120.29;8.63;-51.39;32.88;-14.56;12.58;13.74;57.2;3.8;12.72;-105.25;-31.65;108.86;3.68;0.72;-0.13
2;-147.54;-25.32;7.7;59.31;25.69;-20.36;-6.06;-290.73;-97.82;8.38;-50.81;26.38;-14.33;22.56;24.81;58.91;3.43;12.02;-132.17;-28.9;91.69;-1.47;0.1;0.17
2;-159.61;-24.63;8.69;70.65;29.81;-20.77;-10.19;-375.85;-136.69;9.15;-53.1;30;-14.51;19.19;9.5;76.14;4.29;12.72;-165.17;-31.33;117.88;2.82;0.76;0.28
2;-161.08;-36.27;8.92;71.96;38.85;-20.99;-6.24;-335.3;-205.55;10.29;-49.22;25.01;-14.94;13.46;22.77;68.11;4.11;12.23;-135.35;-32.85;124.92;3.08;0.5;0.84
2;-157.05;-32.68;8.78;74.75;33.65;-21.9;-11.2;-401.82;-170.48;8.39;-46.73;28.7;-14.12;8.86;20.3;52.16;4.58;12.57;-96.24;-33.85;101.93;5.52;1.05;0.25
2;-152.31;-29.9;8.22;72.82;33.4;-20.63;-11.85;-392.62;-175.39;9.85;-46.88;30.45;-13.68;14.62;15.13;67.52;5.28;12.78;-139.1;-30.08;118.79;5.22;0.61;0.75
2;-146.23;-22.34;9.36;63.89;27.84;-21.84;-10.52;-345.05;-72.37;9.02;-53.84;30.29;-13.23;31.71;11.27;74.48;4.41;12.15;-143.39;-31.75;105.73;8.3;0.53;-0.07
2;-146.23;-30.1;8.14;67.1;25.05;-25.5;-12.73;-291.14;-75.72;9.94;-36.35;35.14;-13.69;22.97;20.4;102.32;4.8;14.09;-175.01;-30.18;157.96;3.97;0.79;0.15
2;-148.85;-21.93;9.42;74.03;31.59;-18.96;-12.93;-325.41;-92.67;12.52;-39.89;31.41;-12.88;32.12;8.14;80.03;4.77;13.13;-129.93;-33.89;121.11;9.15;1.12;0.41
2;-45.5;-15.6;9.56;214.42;64.69;-19.38;-11.53;-442.23;-210.72;10.15;500.09;23.3;-12.38;88.42;3.04;82.91;5.25;10.16;-248.33;-31.49;82.08;3.38;6.4;-1.37
2;54.69;-0.44;6.2;277.62;69.17;-23.53;-10.68;-462.44;-218.33;4.27;469.89;18.5;-8.72;91.8;-14.15;92.95;2.88;10.01;-252.72;-25.63;100.82;-0.53;4.9;-1.35
2;-79.93;-28.95;8.87;197.27;51.28;-16.82;-11.77;-379.68;-191.39;8.54;498.85;27.45;-11.74;60.65;-19.36;88.86;4.18;11.3;-249.98;-32.78;138.57;3.34;2.96;-0.29
2;-127.28;-28.68;6.02;93;35.64;-23.62;-7.63;-377.35;-197.46;10.83;140.73;26.38;-14;18.19;8.09;77.19;4.18;12.11;-164.97;-25.69;136.11;-4.55;1.69;0.66
2;-114.79;-29.98;9.12;110.91;37.16;-20.8;-9.39;-344.85;-126.93;9.52;215.95;27.53;-13.68;47.07;14.34;71.24;4.33;11.93;-129.72;-35.54;150.22;9.29;1.74;0.42
2;-122.71;-24.43;6.99;123.38;42.12;-24.43;-9.03;-357.81;-137.53;10.49;249.15;33.44;-14.18;92.23;6.13;68.11;4.8;13.39;-124.26;-29.25;115.21;4.27;2.46;0.05
2;-116.55;-31.5;9.19;134.22;34.85;-24.83;-20.32;-286.55;-97.67;9.39;300.54;38.78;-13.32;49.09;2.8;94.05;5.97;13.93;-222.87;-31.55;151.07;14.88;2.51;-0.45
2;-125.23;-17.91;9.62;98.02;32.11;-27.5;-15.32;-317.55;-85.85;10.62;139.76;29.73;-12.98;41.05;8.8;82.16;5.37;12.64;-162.74;-31.51;127.25;14.28;1.92;-0.66
2;-132.49;-23.65;6.85;98.43;32.63;-21.38;-9.22;-346.91;-144.24;10.86;172.86;32.52;-14;34.3;12.91;73.15;4.67;12.73;-139.72;-27.46;125.84;-0.83;2.49;0.37
2;-119.79;-23.53;10.36;121.23;31.95;-18.23;-15.84;-314.79;-94.77;10.59;255.86;24.04;-12.38;52.48;-11.47;74.99;5.65;11.7;-188.53;-39.19;110.45;17.45;2.8;0.32
2;-120.94;-24.14;8.02;96.88;29.55;-24.06;-10.77;-306.95;-86.27;11.74;188.94;19.62;-13.77;19.98;7.61;78.43;4.61;11.65;-193.89;-31.03;98.81;5.15;1.68;0.31
2;-123.38;-20.26;8.95;101.82;31.32;-19.45;-13.57;-310.32;-75.46;7.84;199.67;28.45;-13.89;59.47;2.48;47.97;4.63;11.91;-118.35;-34.81;67.25;9.94;2.48;-0.01
2;-132.71;-29.14;7.55;111.82;34.26;-22.7;-9.57;-351.06;-135.14;8.82;198.82;28.16;-14.38;54.53;7.89;66.84;4.65;13.16;-121.74;-32.34;100.87;2.75;2.7;-0.36
2;-128.59;-21.52;8.29;97.5;32.18;-19.41;-10.43;-285.41;-93.25;12.61;179.49;28;-13.72;47.17;3.63;51.48;4.9;11.93;-131.29;-32.73;90.42;8.91;2.53;-0.13
2;-130.1;-22.38;7.85;98.68;31.83;-21.66;-11.85;-364.17;-128.05;10.3;157.65;34.7;-13.86;28;11.46;75.77;4.95;13.01;-148.03;-29.89;137.91;5.76;2.38;-0.36
2;-129.96;-9.4;9.1;97.29;29.26;-24.12;-16.81;-314.62;-64.59;9.05;169.96;34.41;-13.6;43.17;5.29;84.77;5.57;13.04;-164.97;-33.5;180.91;14.16;2.03;-1.16
2;-122.2;-23.92;9.7;116.29;37.88;-19.03;-13.49;-345.87;-80.74;10.07;221.87;35.9;-13.5;62.09;6.6;63.77;5.26;12.67;-90.19;-35.14;136.17;14.69;2.01;-0.33
2;-135.02;-21.69;7.31;89.2;35.02;-22.91;-13.46;-352.21;-109.88;8.33;128.24;37.78;-13.9;60.45;3.58;91.02;4.98;12.83;-263.02;-26.96;159.69;7.46;2.13;-0.28
2;-119.63;-36.9;5.99;86.38;31.24;-16.23;-11.75;-313.95;-119.09;8.3;150.44;32.91;-13.56;43.68;10.95;66.68;4.43;10.79;-158.6;-25.81;117.73;0.72;1.98;0.01
2;-114.37;-29.82;5.81;95.28;38.84;-23.54;-8.41;-312.22;-167.27;7.99;189.03;26.99;-14.63;70.37;23.26;62.25;3.64;11.72;-101.81;-26.44;125.6;-4.08;1.51;0.14
2;-120.87;-15.51;6.83;113.85;38.11;-23.69;-8.56;-295.15;-78.56;9.64;232.12;32.1;-14.22;95.79;-0.59;76.48;4.29;12.24;-151.3;-30.93;134.38;4.69;2.03;-0.77
2;-131.9;-31.41;8.32;120.25;37.42;-23.39;-11.98;-382.26;-172.54;11.01;209.91;34.77;-14.75;61.03;9.69;79.78;5.32;14.07;-193.04;-32.19;134.41;3.49;2.09;-0.07
2;-115.68;-27.55;7.59;116.64;38.71;-20.87;-9.05;-306.53;-128.74;7.88;230.43;32.12;-14.06;69.94;17.57;53.15;4.41;13.18;-90.45;-30.54;109.08;5.31;2.62;-0.53
2;-126.51;-34.12;7.26;92.19;27.61;-24.41;-12.34;-336.83;-116.46;7.1;138.28;35.1;-13.88;4.45;10.52;67.23;4.37;13.15;-156.27;-27.49;128.19;6.58;2.89;-0.05
2;-130.12;-24.14;9.4;89.74;27.74;-18.48;-12.11;-297.67;-90.78;6.43;158.27;29.19;-13.92;17.94;4.76;67.04;4.22;11.8;-156.23;-33.42;86.76;12.99;2.46;-0.47
2;-134.13;-21.4;12.41;92.31;41.01;-18.91;-14.56;-410.33;-137.45;12.05;117.78;30.8;-14.13;48.7;1.74;64.45;4.9;12.05;-124.69;-40.3;153.31;22.15;2.67;0.09
2;-126.3;-32.64;8.38;108.35;31.22;-17.98;-12.48;-334.1;-123.17;11.75;215.54;27.47;-13.96;35.93;16.87;46.65;4.99;11.35;-70.08;-35.03;78.63;7.76;2.67;-0.07
2;-121.6;-21.08;7.16;105.94;33.67;-20.79;-7.39;-274.09;-96.45;9.22;211.97;23.85;-13.95;64.58;22.15;48.48;4.41;10.8;-96.02;-32.39;95.01;2.64;1.9;-0.32
2;-129.92;-34.92;5.75;94.86;36.79;-23.47;-8.19;-329.28;-200.46;9.36;148.05;23.78;-14.17;16.35;19.27;57.26;3.98;11.71;-122.62;-26.44;121.46;-4.35;2.06;0.12
2;-123.94;-24.08;8.63;112.36;33.14;-24.91;-8.11;-300.21;-99.06;9.08;227.16;21.64;-13.76;50.59;9.01;71.49;3.93;12.11;-151.06;-34.9;110.65;7.8;1.95;-0.31
2;-129.69;-31.95;7.33;107.61;40.32;-24.16;-8.35;-346.89;-190.03;9.63;191.48;23.66;-14.5;46.88;21.15;42.82;4.32;11.45;-78.66;-32.39;92.56;3.21;1.78;0.2
2;-133.26;-15.55;9.12;77.08;30.76;-23.74;-11.78;-348.4;-134.47;9.22;81.59;28.15;-14.01;23.86;4.5;67.87;4.61;11.65;-177.01;-33.79;97.88;8.01;1.66;0.37
2;-118.96;-21.65;7.92;105.77;28.62;-21.13;-10.92;-284.69;-77.17;11.35;224.72;29.83;-13.45;38.61;16.05;58.05;4.79;11.88;-97.04;-30.05;111.09;6;2.42;0.22
2;-125.15;-17.4;8.97;95.08;33.65;-20.24;-10.07;-309.63;-100.71;8.84;151.59;35.84;-13.27;45.18;22.32;78.7;4.58;12.17;-121.98;-33.21;165.38;9.82;1.6;0.18
2;-125.92;-15.94;7.76;109.67;32.44;-19.69;-11.11;-288.34;-114.31;11.14;224.73;30.27;-13.89;59.11;8.23;65.56;5.05;12.03;-115.03;-34.41;143.64;4.85;1.88;-0.15
2;-113.83;-24.53;6.79;99.06;26;-18;-8.89;-245.82;-66.73;9.44;194.66;25.21;-13.2;34.44;19.52;55.04;4.11;10.18;-60.9;-27.09;120.91;1.62;1.48;-0.01
2;-123.51;-19.3;6.8;83.6;29.39;-19.82;-9.38;-290.54;-109.09;8.08;137.73;29.94;-13.65;47.27;13.54;64.21;4.04;11.6;-91.16;-27.84;130.24;-1.35;1.76;-0.19
0;160.95;69.98;5.97;198.78;92.9;-0.08;-7.99;-197.15;-130.33;9.42;410.95;19.86;-7.56;204.74;10.38;135.93;3.62;6.18;-296.56;-28.9;192.35;-1.04;9.03;-2.84
0;-127.61;-46.13;4.98;49.88;24.79;-18.16;-12.81;-224.47;-87.59;8.11;-40.36;28.87;-12.53;13.09;9.34;124.15;5;12.65;-323.86;-27.85;239.65;-5.8;0.68;0.94
0;135.02;57.9;6.34;240.47;112.69;-7.67;-7.92;-217.48;-126.93;6.1;453.27;21;-8.51;253.67;15.13;120.53;3.42;6.99;-226.13;-24.26;189.66;1.31;7.07;-2.46
0;-122.68;-42.68;7.51;55.13;32.67;-10.11;-13.01;-227.34;-135.43;14.13;-45.48;25.62;-12.4;18.63;-7.04;114.74;5.53;10.29;-282.59;-33.13;187.02;1.54;2.93;1.11
0;99.38;52.82;4.89;216.43;99.91;-9.92;-11.42;-212.79;-112.52;5.12;363.5;19.11;-10.76;179.7;8.85;125.83;3.75;7.97;-253.77;-25.17;203.33;-6.47;6.28;-1.74
0;-118.99;-41.97;4.7;50.58;18.79;-12.37;-8.89;-213.78;-86.09;15.14;-25.66;16.31;-12.4;-10.98;-2.92;71.6;5.32;6.92;-198.1;-27.34;117.72;-4.3;1.45;1.63
0;109.09;50.13;5.89;216.21;103.41;-11.74;-8.84;-208.32;-108.65;4.97;389.14;17.53;-9.77;203.43;12;110.75;3.62;7.36;-244.9;-26.34;179.86;-1.98;6.45;-1.86
0;-123.22;-46.64;6.24;54.33;28.66;-14.55;-15.16;-253.19;-106.59;14.46;-50.28;24.68;-12.73;6.81;-6.1;113.96;6.29;10.1;-305.48;-32.79;221.37;-0.94;1.3;1.64
0;119.95;46.92;7.61;245.36;99.98;-8.15;-8.13;-244.18;-136.27;7.21;445.59;16.52;-8.75;167.05;19.86;128.56;3.37;5.85;-258.65;-26.69;251.88;0.53;7.8;-2.48
0;-127.26;-44.5;5.42;52.99;30.33;-13.15;-13.83;-243.4;-109.64;20.59;-34.59;20.34;-12.69;21.19;-9.02;105.43;7.07;8.87;-292.29;-29.67;182.73;-4.2;1.22;1.92
0;109.82;41.89;7.76;229.19;87.93;-9.01;-10.4;-228.09;-145.21;14.34;451.24;21.66;-9.17;165.6;-6.78;150.89;4.56;7.42;-298.7;-27.33;232.91;4.34;7.53;-2.2
0;-140.31;-47.61;5.02;55.94;19.36;-16.54;-14.26;-238.41;-86.19;14.5;-45.58;14.46;-13.02;-12.41;-4.21;80.13;5.26;8.85;-241.13;-26.66;139.8;-6.94;-0.06;1.08
0;170.95;82.48;5.35;227.88;110.39;-3.31;-9.38;-204.31;-112.47;11.42;453.46;20.55;-8.01;217.22;42.42;130.89;4.68;6.93;-236.04;-23.19;219.09;-1.97;9.67;-3.26
0;-124.49;-48.29;5.35;57.26;30.4;-16.8;-16.21;-256.15;-108.71;18.95;-37.81;22.61;-12.71;18.28;-7.71;138.05;7.61;9.18;-370.29;-27.34;207.6;-1.86;1.67;1.12
0;105.91;43.57;8.66;237.53;102.68;-16.84;-10.36;-243.13;-145.24;19.44;436.83;18.28;-9.58;213.36;-0.4;141.54;5.53;7.72;-294.33;-29.35;214.45;1.36;6.82;-2.03
0;-125.43;-49.7;4.67;52.37;29.73;-14.76;-16.99;-228.47;-85.58;15.02;-51.25;23.26;-12.08;23.78;0.9;102.13;6.38;8.96;-268;-29.38;153.66;-4.16;1.22;1.05
0;117.13;55.53;8.29;221.09;117.89;-6.7;-10.27;-228.2;-162.23;17.29;405.52;19.74;-9.92;228.37;15.69;121.76;6.05;6.27;-252.08;-31.02;178.65;-1.1;7.95;-2.49
0;-118.4;-41.52;6.04;44.85;33.29;-12.67;-17.03;-214.17;-90.02;15.18;-56.01;28.32;-12.18;33.05;1.45;113.72;6.31;9.67;-301.91;-34.01;192.56;-1.4;1.31;0.56
0;97.51;48.8;6.51;216.69;95.42;-8.32;-8.22;-204.14;-137;14.03;353.16;18.42;-9.76;157.67;19.69;135.95;4.75;7.26;-291.48;-25.07;209.48;-2.69;6.9;-1.78
0;-143.5;-47.79;6.55;57.22;34.7;-12.92;-15.21;-256.86;-97.98;14.6;-75.71;30.36;-13.3;45.15;-16.94;128.02;6.07;10.18;-369.26;-30.95;224.4;-1.21;0.47;1.29
0;161.95;66.95;5.25;209.33;91.48;-2.43;-8.97;-187.58;-142.62;11.63;404.45;14.6;-7.63;166.55;20.6;127.53;3.97;5.58;-307.19;-23.9;204.91;-1.99;8.42;-2.82
0;-131.43;-46.7;5.92;59.54;27.89;-15.9;-14.15;-277.65;-93.01;15.86;-64.54;27.6;-12.68;9.29;-6.77;117.99;6.47;10.47;-318.48;-29.5;225.04;-2.61;1.06;1.39
0;120.62;54.1;9.72;254.96;112.17;-14.25;-10.08;-257.65;-155.69;16.54;467;15.81;-9.18;210.6;26.93;125.5;4.82;6.19;-237.78;-30.4;195.78;4.35;7.17;-2.38
0;-130.9;-39.54;8.09;51.58;37.64;-9.8;-17.46;-237.54;-123.3;21.01;-44.8;37.41;-11.98;35.39;-18.37;150.41;7.47;11.84;-419.63;-34.17;273.03;5.79;1.71;0.96
0;91;35.68;9.85;223.38;81.89;-9.56;-9.8;-271.35;-142.03;15.92;362.86;16.73;-10.58;164.57;1.01;162.03;5.23;7.04;-302.38;-35.78;223.96;-0.19;6.88;-1.17
0;-137.73;-53.45;4.9;72.77;32.09;-12.88;-15.37;-256.76;-88.16;6.9;-7.11;30.45;-11.01;67.23;-3.09;96.4;5.16;9.6;-325.5;-19.69;119.54;1.93;0.73;1.19
0;129.29;60.36;11.16;236.59;105.77;-6.75;-10.99;-231.14;-160.53;19.19;457.27;17.28;-8.92;182.66;27.14;166.53;5.93;6.16;-324.34;-35.46;313.69;6.05;8.58;-2.47
0;-131.14;-41.07;6.29;57.47;28.65;-8.88;-15.3;-244.09;-80.72;8.99;-49.01;32.49;-11.1;23.97;-3.5;90.44;6.08;9.29;-249.24;-28.73;130.22;1.72;2.01;0.59
0;116.89;51.04;8.8;223.5;90.84;-9.31;-6.06;-226.18;-132.13;10.83;402.22;15.05;-8.81;164.1;28.74;151.96;4.35;5.89;-286.15;-29.56;213.51;0.34;6.46;-2.29
0;-142.1;-44.72;6.01;63.21;28.1;-9.81;-13.49;-260.79;-87.88;20.19;-51.11;35.06;-12.16;27.33;-19.63;119.35;6.14;10.41;-368.19;-32.4;194.27;-1.45;1.52;1.3
0;139.34;60.8;8.5;233.93;91.16;-5.41;-7.68;-211.64;-117.51;2.06;425.4;21.2;-8.35;189.03;39.81;149.54;2.67;6.43;-305.18;-30.75;190.89;1.72;7.91;-2.91
0;-134.56;-41.21;6.05;54.98;24.62;-14.69;-11.42;-244.71;-104.07;19.9;-30.29;25.47;-12.48;16.26;-22.18;117.43;6.17;10.17;-355.06;-32.64;188.56;-2.6;1.3;1.84
0;129.61;55.14;8.27;238.32;76.97;-12.67;-7.97;-242.47;-77.45;4.15;423.82;17.39;-8.66;157.53;10.59;156.62;3.02;6.18;-296.75;-29.79;210.46;0.93;7.37;-2.23
0;-116.21;-44.21;6.48;47.62;27.72;-16.88;-6.92;-228.47;-128.53;10.72;-26.59;18.77;-12.77;-0.55;-0.01;75.58;4.46;10.19;-166.67;-32.98;129.72;-2.96;2.81;1.2
0;91.95;47.42;5.58;215.1;89.66;-11.17;-9.29;-215.28;-115.37;6.3;382.07;15.84;-9.81;181.44;2.01;117.44;3.6;7.95;-296.84;-24.95;172.38;0.32;6.01;-1.85
0;-137.52;-52.1;6.84;56.62;27.65;-15.48;-10.96;-242.05;-132.33;11.58;-64.43;19.09;-13.38;-5.23;-7.26;77.02;4.99;8;-181.72;-33.41;115.28;0.8;0.81;1.77
0;155.45;64.96;7.08;231.8;80.01;-0.34;-8.44;-218.4;-93.17;2.2;463.66;16;-7.47;186.31;24.73;130.38;3.28;5.77;-278.52;-28.75;214.16;0.5;9.01;-3.06
0;-128.19;-47.88;6.43;56.43;29.72;-17.43;-9.19;-247.54;-110.78;15.43;-18.31;18.83;-12.7;0.04;-9.3;83.85;5.18;10.19;-193.51;-32.34;158.86;-1.62;1.3;2.26
0;123.28;47.22;7.32;234.12;97.13;-13.89;-9.27;-235.32;-154.1;7.85;412.04;15.94;-9.4;151.25;12.46;113.15;3.19;6.48;-195.27;-25.39;173.57;0.15;7.94;-2.33
0;-137.6;-49.9;5.01;56.06;34.41;-18.86;-11.54;-263.53;-118.95;16.17;-42.77;25.04;-12.66;14.28;-6.38;115.54;5.9;10.57;-297.59;-28.67;242.66;-4.14;0.01;2.09
0;133.53;46.12;7.05;228.08;89.98;-7.3;-6.7;-217.34;-104.98;3.72;387.99;13.25;-8.96;138.89;21.33;116.21;2.79;4.27;-203.75;-26.07;189.99;1.16;6.81;-2.21
0;-126.67;-45.04;5.81;46.46;26.43;-16.97;-12.95;-237.04;-89.29;15.49;-39.97;24.43;-12.69;1.35;-13.47;132.59;6.14;10.94;-347.04;-30.33;203.48;-1.6;2.25;1.37
0;110.66;49.51;6.43;250.86;110.52;-16.35;-12.54;-229.74;-98.27;7.01;432.11;16.41;-9.97;230.23;11.62;121.22;4.34;7.76;-258.8;-25;195.94;-1.85;6.01;-2.01
0;-122.32;-46.68;5.61;57.82;28.45;-14.32;-13.35;-248.36;-103.03;16.15;-15.58;19.77;-12.66;1.81;-11.08;111.24;6.52;8.27;-282.48;-29.02;201.31;-2.1;1.77;1.97
0;113.67;31.05;6.96;235.99;77.66;-13.51;-9.25;-240.13;-117.73;8;434.48;22.28;-9.14;132.81;9.89;141.87;4.04;7.25;-254.68;-25.83;216.49;0.12;6.65;-1.63
0;-131.67;-47.52;6.1;44.53;25.14;-21.13;-9.92;-235.65;-96.28;12.98;-63.5;25.97;-12.83;-2.13;-4.47;111.97;5.17;12.56;-246.1;-31.28;216.1;-3.1;0.93;1.73
0;122.72;45.93;5.79;240.97;91.91;-10.02;-10.36;-233.31;-110.46;7;423.26;19.25;-9.49;143.78;7.35;126.2;3.5;6.39;-258.73;-22.36;222.82;-1.16;7.32;-2.54
0;-124.04;-48.99;5.91;64.4;27.13;-19.14;-10.52;-253.76;-112.06;18.98;14.84;14.91;-13.02;-4.23;-5.1;81.3;6.45;8.05;-208.97;-32.63;140;-3.34;0.48;2.18
0;135.18;51.99;6.97;252.92;115.38;-16.01;-11.91;-233.42;-122.06;7.47;436.21;18.61;-9.73;227.95;25.85;123.95;4.51;7.85;-271.13;-25.61;181.98;1.18;7.2;-2.63
0;-133.74;-46.93;5.75;54.35;28.4;-18.11;-14.55;-245.2;-99.82;21.36;-44.9;22.1;-12.66;10.23;-18.89;127.36;7.53;11.9;-361.57;-29.39;219.82;-2.62;1.01;1.93
0;129.55;58.5;7.39;262.51;101.16;-12.82;-10.19;-231.7;-108.23;5.23;475.23;14.8;-8.95;192.7;30.82;132.03;4.12;7.12;-259.31;-25.44;169.44;1.13;7.57;-2.9
0;-127.87;-43.71;5.26;71.13;22.13;-16.49;-9.4;-266.09;-86.93;19.1;73.46;20.34;-12.66;-7.83;-20.87;82.67;6.04;9.25;-204.92;-29.89;147.96;-3.56;0.02;2.52
0;138.52;69.34;7.86;263.9;112.66;-11.19;-11.61;-243.08;-114.22;7.33;473.76;18.2;-9.38;215.65;31.48;115.81;4.64;6.79;-237.09;-27.5;163.37;0.18;7.94;-3.04
0;-129.42;-50.26;6.44;55.17;25.45;-19.61;-8.67;-242.12;-115.63;16.15;-8.01;20.62;-12.82;-12.93;-18.11;94.97;5.66;10.7;-257.74;-34.28;172;-1.78;0.93;1.98
0;114.81;54.05;6.56;251.8;106.08;-12.56;-12.27;-236.15;-112.23;7.45;444.75;17.25;-9.89;204.79;20.88;128.67;4.26;8.16;-294.79;-26.18;163.8;0.67;6.5;-2.27
0;-124.44;-50.46;5.95;57.46;30.2;-14.91;-12.8;-238.95;-118.87;18.5;-16.53;20.37;-12.44;-1.99;-7.06;109.74;6.44;8.91;-262.92;-30.8;198.27;0.48;1.35;1.96
0;117.36;49.74;5.9;223.56;99.2;-14.96;-9.51;-233.43;-126.98;7.42;385;14.9;-9.7;185.44;14.57;135.18;4.06;8.5;-317.64;-25.1;197.18;-1.24;6.42;-2.33
0;-122.53;-48.66;6.17;49.23;30.35;-13.85;-13.08;-226.75;-123.52;15.79;-47.89;22.02;-12.64;-2.58;-1.1;115.77;5.98;8.63;-311.38;-31.34;187.35;-1.54;2.09;1.28
0;117.21;61.65;5.38;234.65;94;-17.31;-10.81;-219.32;-81.66;6.9;423.15;17.12;-9.71;189.49;26.67;143.15;4.63;8.47;-320.44;-20.22;191.75;-2.75;6.06;-2.24
0;-134.12;-44.28;6.07;54.79;20.37;-17.32;-7.62;-242.29;-81.3;14.27;-8.91;25.45;-12.73;-9.38;-12.22;105.18;5.12;11.82;-276.84;-31.92;146.5;-2.78;0.87;2.25
0;140.19;61.09;7.61;247.45;90.65;-13.26;-11.33;-218.09;-98.22;6.64;451.3;16.77;-10.02;170.26;37.22;158.45;4.82;7.17;-285.1;-26.1;270.77;2.74;6.42;-2.45
0;-125.1;-50.63;6.22;50.88;21.75;-17.67;-14.95;-237.63;-97.12;18.1;-31.71;21.88;-12.13;-14.34;-28.71;116.07;6.8;9.29;-345.52;-33.9;157.06;-1.59;2.42;1.92
0;103.4;50.54;5.63;201.56;96.84;-15.45;-9.34;-217.32;-142.27;7.22;318.62;15.26;-9.65;153.05;8.72;119.85;3.63;7.47;-274.31;-23.89;179.69;-2.44;6.47;-2.44
0;-126.06;-50.42;6.85;51.69;29.18;-10.18;-12.41;-224.37;-112.77;11.89;-70.65;23.02;-12.83;3.83;0.91;110.8;5.74;8.41;-282.19;-34.04;182.24;-0.59;2.23;1.16
0;104.91;59.57;4.99;214.39;110.43;-10.91;-12.15;-211.12;-106.3;6.17;345.31;17.72;-10.26;212.51;25.53;135.11;4.26;8.26;-232.24;-23.26;274.73;-2.43;5.86;-2.23
0;-127.17;-48.29;5.66;54.24;26.77;-18.97;-14.56;-237.17;-104.12;15.74;-27.77;20.21;-12.74;1.99;-15.37;130.03;6.44;9.55;-346.97;-30.6;217.77;-2.6;1.05;1.85
0;135.84;61.19;7.29;267.87;104.89;-13.85;-13.95;-236.26;-111.91;5.8;502.7;18.45;-9.26;216.95;35;162.58;4.87;8.31;-340.68;-23.67;215.8;2.1;7.84;-2.87
0;-126.78;-44.58;6.5;60.84;23.1;-17.79;-13.09;-243.71;-89.97;15.51;18.69;24.75;-12.5;0.15;-22.59;112.95;5.64;10.42;-308.39;-34.41;184.12;-0.34;0.69;1.97
0;131.93;55.95;6.84;248.72;92.65;-13.08;-7.94;-225.38;-94.65;5.31;462.76;15.98;-9.63;186.03;20.89;136.35;3.33;7.08;-323.36;-25.59;156.47;1.47;7.22;-2.3
0;-121.35;-50.58;5.35;56;23.65;-14.97;-10.06;-236.73;-95.09;8.5;-54.85;20.62;-12.11;-9.48;-10.05;107.38;4.53;8.63;-297.53;-27.8;161.5;0.55;1.77;1.58
0;121.82;48.75;6.9;239.97;107.63;-13.73;-10.87;-226.89;-156.4;8.51;427.81;17.63;-9.92;196.52;13.01;114.65;4.21;7.72;-275.74;-26.97;152.5;-1.46;7.8;-2.43
0;-132.42;-52.61;5.73;54.14;30.92;-15.61;-13.01;-245.61;-108.22;19.25;-48.33;18.33;-12.48;1.76;-3.47;98.49;6.79;9.21;-242.78;-30.06;163.22;-3.66;0.15;2.03
0;134.72;63.09;6.81;245.41;105.01;-8.9;-8.3;-218.96;-109.16;5.9;430.91;16.91;-9.29;219.55;28.21;142.57;3.27;7.04;-273.63;-27.69;235.99;-2.61;6.74;-2.71
0;-130.42;-49.35;5.78;63.91;19.59;-14.68;-9.55;-257.83;-90.52;15.13;11.73;28.09;-12.5;-15.76;-19.11;93.44;5.55;10.44;-325.05;-32.02;93.84;-3.29;1.81;2.12
0;120.19;51.3;6.71;230.19;99.3;-9.86;-9.55;-231.78;-147.17;7.21;409.34;14.39;-9.32;172.65;15.14;118.65;3.86;6.55;-270.19;-25.89;182.75;-1.16;6.94;-2.59
0;-130.3;-50.18;5.6;53.76;34.08;-11.24;-14.92;-251.59;-118.4;15.84;-55.75;26.77;-12.27;10.02;-3.44;117.87;6.6;9.34;-318.17;-28.38;220.47;0.51;1.25;1.46
0;127.51;56.32;7.66;242.69;115.55;-9.29;-12.62;-231.88;-104.7;5.47;430.91;18.63;-9.95;237.17;22.04;145.21;3.49;6.81;-262.08;-29.43;248.85;1.04;6.68;-2.59
0;-133.58;-51.45;6.46;57.22;29.5;-16.65;-13.55;-255.9;-103.04;18.59;-41.12;18.31;-12.79;-4.17;-8.61;115.78;6.74;8.63;-311.22;-34.34;165.29;0.88;1.72;1.89
0;129.26;50.17;7.64;241.39;96.41;-13.53;-10.81;-240.8;-149.41;6.49;434.97;19.86;-8.74;174.1;9.1;125.5;3.92;5.84;-246.5;-26.74;200.13;1.6;7.16;-2.46
0;-134.89;-48.04;6.65;61.43;36.6;-15.71;-12.79;-267.25;-140.05;18.16;-39.7;34.7;-12.7;7.11;1.19;129.89;6.22;11.57;-349.78;-32.81;272.55;-1.21;1.43;1.61
0;113.79;39.95;8.49;239.42;94.62;-14.32;-8.84;-248.35;-160.06;15.19;435.99;15.67;-10.04;172.19;-10.79;120.3;4.71;6.53;-260.9;-33.7;176.33;0.27;6.63;-1.76
0;-133.16;-53.01;6.56;65.39;34.18;-14.14;-13.67;-261.13;-112.21;9.27;-31.4;29.48;-11.84;5.61;1.4;98.94;5.71;9.6;-274.33;-31.54;155.05;3.52;1.05;1.04
0;153.77;75.93;9.54;253.32;106.93;-2.82;-12.26;-217.39;-105.83;2.58;470.06;17.14;-8.84;211.36;21.05;133.69;3.99;5.8;-284.79;-33.23;206.76;5.04;8.82;-3.46
0;-125.18;-51.79;7.14;61.81;24.31;-18.19;-13.17;-234.39;-112.32;15.56;45.6;23.82;-12.42;-6.01;-11.91;88.05;5.49;10.43;-212.35;-35.93;132.79;-0.2;1.2;1.95
0;103.78;37.13;7.67;191.31;79.37;-10.07;-7.4;-225.54;-123.85;8.73;323.85;17.5;-9.47;162.52;-13.87;114.43;3.26;6.21;-222.91;-27.93;152.97;0.18;8.31;-2.26
0;-147.89;-62.85;5.09;70.63;31.87;-19.17;-8.69;-277;-131.41;8.45;20.91;19.98;-12.96;9.79;-9.74;102.01;4.07;10.95;-240.22;-25.99;143.89;-4.7;-0.69;1.88
0;187.92;90.36;5.8;229.56;106.55;2.31;-9.61;-210.76;-115.63;0.03;467.3;16.33;-6.81;218.98;61.44;91.09;3.19;5.77;-224.47;-20.18;216.4;0.83;10.68;-3.6
0;-128.49;-45.74;6.03;60.93;28.37;-21.7;-10.11;-264.76;-119.68;12.26;-15.7;25.35;-12.69;11.26;-7.07;104.22;5.65;11.57;-269.84;-31.39;192.36;-3.17;0.65;1.8
0;124.69;43.51;8.06;250.27;97.58;-10.97;-10.13;-252.32;-149.2;13.35;482.18;15.76;-9.09;168.34;10.42;123.95;4.07;5.34;-238.61;-27.65;157.72;1.94;7.21;-2.51
0;-131.22;-50.1;6.93;64;36.96;-14.98;-16.93;-260.72;-118.23;24.4;-39.54;27.77;-12.73;13.6;-7.95;133.8;8.28;10.89;-352.78;-33.84;257.32;0.28;0.82;1.7
0;135.38;46.57;7.51;241.65;101.37;-11.68;-13.8;-214.13;-159.37;13.74;446.69;23.97;-9.68;184.09;13.18;117.08;4.92;7.53;-255.14;-27.8;192.81;-1.33;8.16;-2.69
0;-131.75;-46.02;6.59;58.87;34.42;-14.99;-16.7;-264.8;-109.91;25.27;-46.36;23.96;-12.51;4.34;-4.88;114;8.45;9.55;-310.59;-33.25;212.41;-0.14;0.79;1.79
0;122.64;43.5;8.03;237.54;104.56;-11.56;-9.6;-250.51;-157.16;11.2;424.88;15.92;-9.35;180.4;7.49;100.29;3.65;5.57;-209.98;-29.85;112.65;1.99;7.94;-2.11
0;-141.21;-50.31;5.9;58.02;29.16;-20.19;-12.53;-253.24;-105.44;16.32;-32.38;23.49;-12.96;0.04;-6.42;109.95;5.57;11.73;-241.23;-29.38;217.56;-4.64;-0.4;1.75
0;152.93;64.22;7.29;248.11;102.2;-4.42;-12.01;-229.72;-125.09;5.81;462.44;17.51;-8.33;209.61;21.34;144.33;4.25;6.66;-323.72;-30.28;187.34;0.83;8.74;-3.38
0;-128.5;-48.83;7.03;73.66;31.91;-14.87;-11.72;-275.95;-112.42;18.51;-8.31;19.68;-12.73;6.39;-9.3;104.87;6.73;8.6;-302.29;-31.64;164.57;2.02;1.27;1.8
0;128.87;52.8;8.74;242.66;101.12;-13.06;-9.97;-252.08;-151.19;7.72;427.07;20.6;-8.89;185.76;8.04;131.03;3.63;6.41;-237.82;-29.58;185.51;1.59;7.59;-2.81
0;-129.23;-45.27;6.67;51.04;28.55;-17.7;-11.49;-247.18;-114.89;18.71;-57.78;24.06;-12.78;-5.64;-1.22;93.79;6.23;10.4;-246.95;-35.17;177.39;-3.9;0.87;1.9
0;108.3;47.9;7.74;243.31;112.57;-15.2;-10.37;-242.59;-151.65;12.69;429.7;17.17;-10.34;209.22;21.66;148.85;4.69;8.36;-307.29;-27.89;219.23;1.88;6.41;-2.07
0;-133.67;-44.81;7.29;53.5;38.12;-14.76;-11.66;-248.11;-125.55;14.55;-43.22;32.31;-11.93;22.12;-7.66;136.64;5.31;10.49;-381.82;-34.12;245.18;5.02;1.56;1.08
0;111.87;54.46;8.24;223.86;113.83;-15.25;-10.79;-241.2;-127.79;14.03;346.43;22.79;-9.73;225.46;17.65;150.72;4.93;8.77;-289.33;-31.86;272.91;1.47;6.69;-2.73
0;-146.71;-52.01;5.93;64.11;31.9;-16.87;-13.62;-273.03;-110.23;20.6;-29.61;24.76;-13.24;5.06;-15.61;119.25;6.84;10.57;-352.78;-30.27;191.59;-2.51;-0.02;1.97
0;163.22;71.83;7.95;247.15;94.7;-2.22;-13.38;-223.76;-124.83;0.78;458.43;16;-8.42;183.51;32.05;132.34;4.13;6.11;-298.25;-29.84;214.37;0.32;9.26;-3.8
0;-132.5;-50.03;6.26;67.92;31.37;-14.95;-10.59;-274.74;-110.97;21.25;21.03;20.98;-12.93;2.12;-14.4;110.74;7.01;9.59;-324.75;-33.55;206.83;-1.66;0.54;2.47
0;130.01;53.18;8.07;252.25;100.23;-12.87;-9.82;-251.3;-120.32;7.05;443.54;13.85;-8.8;174.19;20.13;127.72;3.84;6.81;-288.03;-29.48;173.76;0.82;7.22;-2.99
0;-134.83;-52.91;5.75;69.16;28.78;-15.11;-10.3;-272.23;-105.08;13.92;-24.88;21.59;-12.71;-2.19;-7.25;111.45;6.04;9.35;-296.71;-28.48;183.46;-0.54;1.07;2.02
0;136.23;64.59;9.19;270.92;108;-12.76;-12.43;-256.71;-127.73;6.55;497.66;14.96;-9.05;188.27;19.65;146.11;4.23;7.33;-270.08;-31.05;254.27;3.76;7.67;-3.9
0;-130.44;-49.2;5.83;65.6;25.8;-21.19;-12.12;-255.89;-116.51;22.39;1.44;21.91;-12.77;-12.21;-8.88;108.22;7.22;11.14;-277.23;-30.08;206.11;-3.02;0.41;2.26
0;136.37;60.87;6.7;249;102.52;-16.71;-9.78;-243.95;-106.88;8.06;433.67;18.27;-10.11;205.82;36.16;159.42;4.17;9.32;-362.41;-26.35;240.09;-2.06;6.54;-2.6
0;-129.13;-50.16;5.83;62.77;23.85;-16.52;-10.87;-268.08;-98.62;16;20.59;23.21;-12.67;-10.68;-24.57;105.6;5.69;9.78;-292.69;-32.16;142.94;-2.74;1.33;1.94
0;143.63;60.33;7.85;248.49;114.26;-12.88;-13.39;-255.86;-108.2;9.34;455.52;20.76;-10.9;236.75;46.1;165.62;4.64;9.06;-303.15;-26.87;361.54;3.13;4.9;-1.7
0;-131.64;-47.26;6;66.31;25.06;-16.67;-13.67;-264.97;-118.26;19.95;-14.14;24.91;-12.13;-1.49;-26.31;101.1;6.72;9.17;-357.82;-32.92;81.97;-2.44;1.94;1.85
0;142.68;36.65;7.13;244.77;80.57;-12.09;-7.25;-247.14;-91.25;6.43;455.66;18.05;-8.87;162.37;8.14;148.31;3.87;6.65;-274.9;-25.84;191.21;1.17;6.58;-2.3
0;-140.49;-50.08;4.44;63.57;25.4;-15.24;-10.17;-253.61;-94.52;15.65;-50.42;22.14;-12.17;-2.33;-4.45;88.99;5.75;9.09;-233.02;-24.54;135.5;-2.99;1.93;2.16
0;135.99;59.56;10.91;259.91;96.66;-12.7;-11.66;-237.14;-155.18;5.74;502.55;19.06;-9.16;181.92;18.94;147.53;4.2;6.85;-304.68;-35.05;227.55;5.15;7.87;-3.05
0;-143.63;-48.68;5.35;55.82;30.16;-15.4;-8.18;-259.24;-133.89;17.24;-52.13;30.69;-12.63;-0.77;-5.64;119.45;5.73;10.98;-327.1;-27.77;233.16;-4.11;0.8;2.15
0;137.4;57.92;7.64;234.42;85.28;-12.25;-10.16;-229.45;-92.2;5.18;419.75;13.85;-9.59;153.54;18.23;146.43;3.6;5.67;-345.65;-30.85;187.29;-1.87;6.63;-2.35
0;-126.86;-51.58;7.7;69.17;35.65;-12.44;-14.94;-260.32;-125.17;18.04;-15.38;29.65;-12.52;19.53;-17.68;126.56;7.15;10.05;-335.01;-35.13;226.71;3.79;1.92;1.93
0;139.23;50.56;8.49;262.4;119.8;-11.65;-14.36;-244.68;-136.58;6.96;489.81;18.84;-9.48;236.93;17.3;103.33;4.84;7.13;-204.46;-31.79;187.29;1.95;7.77;-2.7
0;-132.17;-48.55;6.7;60.06;28.02;-21.22;-13.62;-257.52;-123.88;16.54;5.55;22.74;-12.71;3.94;-7.95;103.07;6.26;11.75;-268.44;-33.75;201.37;-1.48;0.93;2.1
0;122.11;36.49;7.33;217.85;90.32;-11.87;-10.65;-236.02;-172;12.28;350.01;19.1;-9.86;148.94;1.98;112.46;4.03;6.82;-263.87;-28.55;145.83;-0.07;7.02;-1.92
0;-139.87;-54.3;6.38;65.01;32.67;-14.45;-13.51;-276.81;-122.34;13.37;-67.6;30.76;-12.16;7.2;0.17;132.46;6.29;11.83;-343.13;-33.51;242.1;1.62;0.7;1.54
0;138.85;48.31;7.27;232.15;98.91;-7.91;-10.15;-257.11;-139.73;7.03;439.33;18.79;-9.24;170.98;13.33;105.43;3.58;5.14;-218.08;-25.94;194.08;1.73;7.68;-2.95
0;-134.53;-44.77;6.78;61.04;34.9;-16.47;-13.3;-268.25;-132.48;20.12;-44.02;24.94;-13.02;3.36;-0.73;101.47;6.75;9.47;-268.47;-33.99;211.29;-0.38;0.64;2.18
0;142.02;36.5;8.21;267.45;80.03;-14.49;-11.59;-241.65;-82.36;6.3;494.77;19.85;-8.92;160.28;-4.51;160.14;4.27;7.15;-331.75;-26.24;228.14;1.83;6.76;-2.34
0;-125.13;-54.02;7.4;69.71;36.01;-14.3;-13.42;-260.63;-113.97;13.85;-18.53;20.71;-12.13;7.45;-2.28;105.74;5.81;9.18;-270.4;-34.03;143.85;4.4;2.37;1.5
0;137.22;54.32;10.66;285.07;96.03;-10.68;-11.07;-252.84;-100.59;6.77;502.81;18.99;-9.18;193.98;36.6;155.59;4.34;7.43;-286.97;-33.74;263.18;4.81;7.89;-2.38
0;-123.3;-41.51;6.11;62.3;16.64;-15.26;-6.89;-218.74;-69.98;15.12;69.9;27.34;-12.35;-6.5;-29;86.2;4.55;10.29;-246.15;-33.32;108.45;-3.38;1.67;2.2
0;111.91;47.75;4.85;228.46;96.82;-13.26;-8.45;-222.93;-102.79;6.41;382.82;17.93;-10.58;169.4;19.94;109.42;3.99;8.05;-244.09;-23.51;162.28;-3.41;5.76;-1.83
0;-134.72;-55.64;6.4;69.64;36.5;-12.81;-13.2;-302.23;-127.9;17.73;-42.48;25.8;-13.07;5.12;-14.07;111.63;6.58;10.19;-305.01;-34.92;212.46;-1.7;0.38;2.03
0;141.44;56.78;7.87;267.34;101.63;-12.3;-12.98;-266.45;-118.67;5.91;491.55;15.79;-8.69;182.34;36.09;115.04;4.36;6.24;-268.09;-26.07;173.7;0.93;8;-3.24
0;-136.86;-47.94;6.58;77.81;35.86;-11.35;-14.79;-298.11;-124.3;22.7;-5.65;21.89;-12.62;8.63;-23.98;107.61;8.14;9.79;-334.93;-33.78;187.31;-1.54;0.19;2.9
0;135.36;60.34;7.98;262.84;98.64;-7.39;-10.47;-257.15;-122.85;3.56;475.39;12.69;-8.15;181.41;28.43;126.01;3.76;4.71;-226.23;-24.49;218.9;2.63;7.41;-3.25
0;-132.4;-43.5;6.84;74.34;31.77;-17.74;-6.77;-276.48;-120.33;12.68;-8.38;17.95;-12.76;7.91;-1.86;71.01;5.24;8.9;-206.12;-35.15;89.76;-0.88;1.54;2.07
0;120.54;57.1;8.73;251.34;97.04;-18.48;-14.36;-254.94;-169.83;12.05;493.66;16.92;-9.08;171.56;9.61;163.08;5.22;8.23;-407.95;-26.48;199.2;5.29;7.27;-3.46
0;-140.23;-51.16;6.39;71.14;33.78;-17.04;-14.22;-281.91;-102.81;18.44;-50.16;27.94;-12.79;2.44;-4.37;107.32;6.94;10.39;-300.98;-31.25;201.62;0.15;-0.18;1.79
0;160.74;50.23;8.7;260.02;102.25;-7.53;-13.44;-222.16;-155.65;2;489.57;19.39;-8.83;210.85;20.16;146.03;4.35;6.85;-305.65;-29.54;249.29;1.03;8.49;-3.66
0;-135.16;-43.58;6.22;68.47;37.54;-13.91;-17.83;-287.91;-134.36;29.11;-44.16;28.06;-12.71;24.44;-14.22;144.07;9.54;11.84;-398.64;-31.34;286.27;-1.68;0.67;2.38
0;126.95;40.84;8.55;260.37;91.12;-12.41;-11.51;-275.01;-149.51;8.68;478.06;20.77;-8.94;140.86;9.04;143.9;4.42;6.95;-295.06;-28.65;215.5;2.78;7.59;-2.19
0;-136.68;-46.43;7.02;56.82;33.86;-25.25;-12.61;-257.53;-123.37;19.82;-41.45;27.02;-12.52;8.33;-8.34;88.46;6.93;12.25;-193.54;-35.37;209.48;-2.74;1.28;2.26
0;115.14;35.08;7.58;211.02;84.77;-9.93;-8.4;-239.53;-140.03;14.9;334.13;19.24;-10.84;136.86;12.71;121.35;4.76;7.53;-269.58;-30.31;219.12;1.82;6.66;-1.47
0;-131.64;-46.89;5.17;52.93;24.18;-13.28;-13.09;-248.26;-96.71;12.68;-67.08;22.61;-11.36;13.33;-0.1;99.44;5.57;8.87;-270.36;-29.14;144.28;0.31;1.27;1.14
0;128.98;50.85;7.99;226.53;82.11;-10.03;-6.62;-230.84;-97.14;5.99;398.93;14.64;-9.82;124.57;20.02;138.64;3.89;5.47;-275.15;-30.03;247.02;-0.72;6.27;-1.9
0;-127.4;-47.1;6.55;47.04;25.56;-10.05;-10.82;-226.53;-108.44;15.33;-56.11;21.1;-12.49;-4.01;-18.13;101.29;5.21;8.24;-229.27;-35.07;172.84;-1.61;2.68;1.28
0;104.82;52.97;6.04;225.71;95.7;-13.32;-11.5;-224.46;-122.38;6.52;399.35;18.55;-10.08;188.5;19.15;124.63;4.47;8.79;-310.65;-24.84;171.65;-0.14;6.3;-1.88
0;-139.41;-57.25;7.09;64.41;34.54;-13.09;-12.06;-247.78;-131.99;12.06;-49.37;24.78;-13.58;3.61;-12.88;111.05;5.54;9.65;-307.99;-32.31;205.77;1.16;0.24;1.41
0;159.49;76.14;7.36;223.56;95.34;1.28;-8.53;-210.44;-129.02;0.67;425.47;19.26;-7.99;207.36;33.12;109.95;3.12;5.5;-248.71;-30.67;166.57;2.7;8.68;-3.18
0;-129.57;-50.78;7.4;63.54;36.37;-12.01;-16.06;-262.66;-129.14;16.32;-32.48;29.77;-12.61;8.51;-14.89;132.79;6.75;10.14;-379.54;-35.63;234.85;1.68;1.35;1.67
0;128.74;43.32;7.94;241.4;100.43;-9.68;-12.22;-237.62;-156.95;5.79;433.36;19.2;-8.76;168.55;18.39;97.66;3.36;5.83;-214.46;-25.68;124.08;2.03;8.06;-2.26
0;-141.34;-49.78;6.58;61.37;32.62;-24.35;-12.03;-268.36;-110.91;15.35;-20.29;34.11;-12.75;9.64;-10.32;116.97;5.6;13.95;-319.36;-34.9;232.36;-3.19;-0.26;2.24
0;153.93;61.15;8.49;268.12;103.82;-10.71;-12.94;-244.86;-129.05;6.01;499.95;20.05;-8.85;197.13;27.63;125.94;4.62;7.05;-297.17;-29.95;143.91;3.61;8.73;-3.6
0;-133.89;-47.62;5.78;69.23;22.05;-24.01;-8.82;-271.3;-107.69;21.66;35.92;28.71;-12.87;-11.98;-19.9;124.9;6.42;12.74;-358.97;-31.99;229.81;-6.04;0.06;2.42
0;133.12;43.03;6.77;228.52;82.33;-13.2;-10.04;-249.07;-147.39;6.63;420.85;21.45;-8.86;131.89;21.08;130.4;3.93;7.82;-294.66;-25.68;208.02;-0.1;7.88;-2.5
0;-135.21;-45;6.39;58.21;24.63;-16.63;-9.25;-267.74;-112.2;17.76;-35.04;25.48;-12.82;-10.83;-2.74;93.92;5.62;10.08;-229.63;-34.42;205.49;-5.34;0.13;2.04
0;139.72;61.18;7.82;256.7;102.19;-8.55;-9.48;-235.97;-118.36;5.19;494.29;14.1;-9.03;186.43;25.8;118.81;3.62;5.35;-235;-28.66;157.72;0.87;8.16;-3.04
0;-132.11;-41.75;6.12;65.89;21.06;-20.62;-11.22;-265.72;-91.23;20.24;28.51;18.22;-12.85;-8.75;-12.4;82.03;6.65;10.58;-180.72;-34.14;166.35;-3.83;0.89;2.49
0;125.05;40.91;7.94;253.12;93.85;-17.25;-11.56;-248.13;-133.81;6.62;472.78;21.16;-8.73;183.18;17.32;117.73;3.72;8.37;-304.55;-25.74;129.94;2.68;7.43;-2.39
0;-140.77;-45.91;6.83;68.96;31.6;-22.33;-10.68;-275.54;-121.11;18.09;6.54;30.58;-12.77;12.2;-20.61;109.8;5.9;12.58;-316.09;-36.86;232.24;-3.55;0.17;2.39
0;153.97;65.01;6.97;232.76;93.32;-2.16;-9.14;-213.96;-116.96;-0.35;421.02;14.29;-8.78;166.61;26.08;90.99;3.01;4.38;-181.82;-28;129.35;-1.25;8.39;-3.39
0;-138.51;-44.3;6.16;56.35;27.6;-17.16;-9.48;-270.3;-115.85;17.27;-48.7;20.62;-12.83;-11.54;-8.22;91.82;5.83;9.77;-230.73;-33.52;184.68;-3.06;0.81;2
0;141.65;45.33;7.83;235.47;81.13;-10.92;-7.05;-244.15;-99.67;5.73;405.75;14.58;-8.93;172.2;21.02;125.02;3.2;5.95;-256.15;-29.07;213.6;0.47;7.14;-2.18
0;-131.69;-45.42;6.41;55.07;30.68;-15.88;-11.67;-248.92;-107.18;14.22;-62.64;26.91;-12.41;8.24;-20.62;125.99;5.52;11.15;-328.51;-33.15;214.15;-1.4;1.86;1.58
0;126.82;30.58;8.7;236.57;88.69;-14.7;-12.6;-240.67;-172.1;20.62;430.36;24.04;-10.21;144.49;3.4;137.33;5.59;8.06;-317.56;-36.02;163.3;0.77;6.72;-1.32
0;-129.2;-46.79;6.39;56.17;36.85;-13.43;-16.15;-255.44;-123.2;14.08;-37.63;33.9;-11.71;6.28;3.05;126.66;6.3;11.24;-326.06;-33.56;241.76;2.36;1.89;0.54
0;97.91;49.11;7.98;204.43;98.53;-15.64;-10.43;-239.17;-122.23;15.38;349.29;18.3;-11.28;174.42;9.24;178.65;5.96;9.16;-478;-34.5;289.5;-3.28;4.92;-1.23
0;-139.12;-43.61;6.55;67.26;45.21;-14.38;-17.81;-269.76;-152.91;10.14;-23.93;37.81;-11.28;38.66;12.45;160.52;7.08;12.87;-485.63;-25.29;353.13;4.97;1.81;0.39
0;146.24;49.67;7.72;238.28;87.9;-12.12;-9.96;-247.98;-137.93;3.89;444.53;19.41;-9.28;161.89;6.3;147.71;3.37;5.73;-318.07;-29.82;221.74;0.55;7.5;-2.73
0;-131.36;-48.46;8.01;58.15;38.4;-11.52;-16.98;-255.76;-138.24;20.2;-44.77;30.33;-12.36;14.53;-6.11;123.19;7.43;10.54;-338.62;-34.29;244.44;7.02;1.99;1.31
0;133.01;51.38;7.73;237.15;91.47;-8.18;-9.57;-243.23;-99.24;5.23;421.89;18.23;-9.07;207.23;27.64;126.67;3.55;6.64;-260.08;-30.22;201.92;-0.82;7.59;-2.23
0;-135.3;-42.37;6.75;58.57;23.76;-14.68;-8.54;-263.72;-101.72;20.78;5.34;20.21;-12.1;-6.14;-24.8;81.65;6.23;10.2;-177.4;-34.95;111.12;-1.1;0.75;2.29
0;131.11;49.6;7;236.25;96.49;-11.96;-11.66;-244.82;-131.37;4.15;416.52;17.2;-9.14;193.59;14.38;110.38;3.36;6.87;-285.5;-28.8;134.55;-0.61;7.73;-2.72
0;-136.88;-49.45;6.94;66.81;33.4;-13.59;-10.74;-289;-140.94;20.82;-15.53;24.31;-12.83;-1.5;-13.35;97.75;7.09;9.8;-265.87;-34.93;191.85;-0.2;0.38;2.45
0;138.53;49.03;9.79;260.39;119.22;-13.02;-13.76;-252.9;-178.54;22.62;469.16;24.27;-9.6;215.32;32.52;120.39;6.27;8.17;-259;-32.56;192.03;2.24;8.45;-2.8
0;-147.77;-44.91;6.35;60.57;35.4;-15.81;-13.46;-283.35;-116.76;22.02;-72.75;32.88;-11.97;28.62;-20.39;129.33;7.15;11.73;-385.32;-34.72;247.03;0.79;0.38;1.39
0;140.16;55.76;10.19;254.32;102.86;-10.31;-10.8;-268.99;-171.42;10.49;449.98;20.12;-8.6;176.31;22.34;130.33;4.11;6.55;-247.03;-34.97;253.3;4.77;8.21;-2.86
0;-133.93;-38.25;8.9;62.64;34.87;-12.16;-14.66;-268.52;-128.48;20.65;-31.19;32.78;-12.24;16.24;-9.26;115.08;7.24;11.23;-328.07;-35.76;206.45;9.88;1.04;1.56
0;134.73;49.06;8.01;245.89;98.09;-7.85;-12.9;-264.19;-182.12;8.99;436.06;26.65;-8.67;179.59;5.65;124.92;3.8;6.77;-230.84;-28.86;202.44;2.21;8.82;-2.8
0;-135.33;-47.68;7.5;65.61;31.85;-14.98;-14.95;-279.17;-136.05;22.76;-54.54;25.41;-12.59;4.75;-5.49;104.86;7.37;10.51;-279.26;-36.58;202.48;2.62;0.14;1.8
0;135.03;42.07;9.36;252.47;101.83;-8.08;-11.67;-270.75;-178.19;15.82;468.09;21.22;-8.98;183.2;5.8;115.64;4.34;6.05;-224.4;-30.48;195.3;3.95;8.05;-2.33
0;-140.32;-52.45;8.4;67.95;35.05;-15.24;-17.55;-289.1;-127.41;22.6;-50.43;26.66;-12.61;13.34;-10.23;108.54;7.66;10.72;-281.75;-36.86;194.56;6.93;0.2;1.62
0;167.33;74.89;10.08;263;100.24;-4.3;-10.59;-283.2;-116.5;2.14;482.41;16.11;-8.17;187.65;49.7;152.43;3.95;5.93;-290.09;-31.86;249.03;7.52;9.04;-3.69
0;-134.64;-44.94;7.48;60.04;19.49;-16.16;-6.8;-258.81;-97.91;16.52;4.75;26.96;-12.2;-13.73;-17.69;110.59;5.12;11.23;-242.39;-35.24;135.81;-0.94;1.2;1.63
0;121.3;61.06;8.06;209.39;99.45;-12.43;-13.46;-237.11;-109.73;4.76;380.39;21.33;-9.6;191.45;24.42;169.69;4.55;8.82;-277.08;-29.78;414.2;0.3;6.12;-2.72
0;-135.33;-47.29;6.62;54.47;26.76;-15.01;-8.23;-261.83;-88.6;8.22;-29.97;23.75;-12.73;10.74;-10.43;132.1;4.18;11.06;-329.92;-35.55;209.26;-2.7;2.08;1.14
0;120.27;52.49;7.94;240.21;101.36;-15.63;-10.3;-251.53;-157.69;10.74;422.01;19.36;-9.32;196.34;12.72;117.16;4.11;7.77;-272.49;-28.87;149.36;2.01;7.74;-2.72
0;-139.95;-44.23;5.88;59.99;35.47;-13.85;-13.52;-279.77;-117.07;21.52;-63.53;25.37;-12.5;10.29;-9.61;106.06;7.21;10.09;-287.07;-32.06;223.55;-2.79;-0.2;2.19
0;141.9;77.55;7.66;255.19;117.23;-9.57;-10.88;-265.64;-125.15;5.46;434.61;19.67;-9.48;198.42;37.15;127.84;3.96;6.92;-257.77;-29.33;235.55;0.29;8.67;-3.87
0;-128.78;-46.47;6.47;64.63;24.52;-19.76;-7.16;-255.46;-96.75;15.62;49.51;29.25;-12.62;-5.8;-15.99;128.59;4.87;11.48;-318.26;-32.27;196.25;-4.26;0.37;2.18
0;130.39;54.77;7.87;246.26;114.58;-12.32;-12.01;-236.93;-137.06;6.81;425.64;22.53;-9.58;231.01;34.01;135.05;4.12;8.17;-306.48;-31.01;274.45;0.89;7.3;-2.72
0;-136.95;-40.39;6.4;61.58;35.07;-27.63;-14.94;-264.41;-105.89;20.06;-13.47;35.87;-12.94;33.73;-20.37;152.27;7.05;14.86;-421.93;-33.12;329.14;-3.61;0.15;1.89
0;131.85;48.58;8.52;254.88;108.86;-12.56;-10.09;-244.92;-172.78;17.61;467.66;16.43;-9.17;177.84;17.33;103.38;4.66;6.81;-255.45;-30.15;110.76;1.41;7.91;-2.44
0;-141.31;-48.3;7.11;62.23;32.14;-20.6;-18.88;-260.98;-108.17;28.02;-56.42;29.19;-12.8;5.37;-0.08;126.32;8.52;10.58;-336.89;-34.93;234.43;1.21;0.74;1.29
0;131.3;55.19;9.03;232.75;100.94;-18.79;-7.37;-230.23;-156.09;17.88;436.87;21.47;-10.18;187.52;8.17;115.57;4.88;7.84;-291.97;-33.87;171.73;-0.84;8.41;-2.33
0;-135.27;-40.33;5.93;57.6;25.15;-17.96;-14.13;-255.59;-89.23;15.41;-62.11;27.96;-12.65;9.7;-6.13;101.5;5.7;10.74;-267.29;-34.05;215.84;-3.4;-0.39;1.28
0;138.17;40.75;8.09;243.14;103.42;-9.85;-9.02;-243.93;-169.92;22.4;457.03;18.97;-9.34;187.41;1.67;103.19;5.65;7.29;-265.65;-37.17;116.09;-0.24;8.15;-1.89
0;-125.34;-45.63;7.7;51.51;28.62;-14.16;-19.65;-221.75;-123.82;15.01;-46.11;30.85;-11.41;7.38;3.03;120.79;7.57;10.31;-320.27;-33.95;213.17;3.52;1.83;0.19
0;112.93;59.29;6.08;196.01;97.04;-20.1;-13.96;-209.13;-117.01;3.21;341.04;25.64;-10.07;210.49;28.2;170.54;4.84;10.23;-264.04;-22.98;404.89;-0.56;6.33;-2.22
0;-125.98;-42.96;6.64;48.5;28.89;-18.83;-10.29;-230.41;-93.09;9.22;-28.7;32.7;-12.83;11.22;-20.16;165.11;5.02;13.21;-395.74;-33.47;240.61;-0.26;1.87;0.87
0;99.49;48.19;6.94;235.85;102.6;-12.96;-11.94;-223.8;-120.89;7.79;425;21.33;-9.9;206.39;22.04;154.33;4.07;8.83;-234.74;-25.24;335.45;-0.92;5.91;-1.73
0;-138.33;-43.15;5.86;65.84;23.51;-22.47;-8.39;-231.79;-82.2;12.94;41.32;32.94;-13.6;8.44;-28.83;136.15;4.32;13.34;-337.02;-30.05;250.95;-4.5;0.12;1.51
1;117.74;48.11;10.42;230.75;95.32;-4.86;-17.73;-259.05;-136.77;18.47;468.93;18.29;-8.81;155.64;11.8;151.54;6.81;6.3;-302.27;-32.44;202.11;3.67;6.94;-2.22
1;-127.65;-52.34;6.29;72.6;38.56;-9.96;-16.41;-274.9;-143.3;12.67;-20.21;14.22;-12.31;0.82;0.6;47.34;6.58;6.58;-112.95;-32.76;83.58;-3.39;1.36;0.98
1;135.76;52.1;10.38;235.24;88.93;-9.31;-16.92;-261.89;-139.67;16.54;452.37;19.02;-8.66;134.57;3.56;155.82;6.14;6.29;-337.08;-34.55;197.86;2.99;6.47;-2.17
1;-121.65;-48.98;5.51;76.14;30.73;-7.97;-16.93;-277.58;-116.1;10.38;-7.54;23.17;-11.41;-8.59;10.59;93.1;6.3;8.32;-242.96;-21.67;179.29;-1.82;2.01;0.46
1;121.65;41.78;10.35;249.4;98.97;-7.26;-13.32;-261.15;-152.14;15.47;464.74;17.96;-8.22;137.61;13.28;129.5;5.81;5.64;-294.19;-31.51;214.69;5.6;5.97;-2.67
1;-131.88;-48.94;8.74;81.31;43.12;-8.62;-16.41;-288.18;-143.14;19.78;-7.1;35.96;-13.38;14.14;-5.22;139.87;7.03;10.72;-393.46;-35.08;282.83;2.38;1.58;0.46
1;145.66;44.24;10.1;233.04;76.76;-5.56;-14.84;-257.33;-108.85;20.4;465.08;21.25;-7.49;138.86;2.2;172.72;6.9;6.28;-336.61;-31.65;251.34;4.74;7.01;-2.36
1;-126.49;-46.18;5.95;70;38.65;-5.47;-16.14;-265.04;-131.19;12.69;-18.26;22.83;-11.18;18.86;11.47;79.92;6.75;7.6;-246.89;-23.6;148.42;2.45;2.49;0.38
1;103.81;46.49;11.38;241.63;97.16;-5.14;-15.83;-249.29;-164.69;13.92;455.02;16.83;-8.92;149.85;2.73;120.88;5.65;5.4;-270.24;-32.53;192;5.82;6.83;-2.63
1;-128.38;-42.13;7.58;81.69;28.42;-10.07;-16.15;-271.8;-99.1;11.72;-7.61;23.65;-12.57;9.94;10.88;64.3;6.07;7.68;-183.49;-33.76;99.48;1.13;1.22;0.61
1;132.7;58.03;11.41;234.42;84.89;-2.93;-16.73;-259.27;-146.33;21.16;487.63;22.33;-7.72;148.82;0.63;168.51;7.14;6.55;-368.23;-33;240.36;8.12;7.08;-2.97
1;-116.69;-46.02;6.76;69.81;31.18;-11.9;-19.99;-245.29;-114.64;8.79;-13.93;22.97;-11.55;8.78;6.42;87;6.68;7.67;-246.86;-23.23;123.19;3.32;1.86;0.02
1;122.91;47.69;10.71;246.7;94.52;-5.95;-11.95;-244.34;-160.02;20.18;477.89;16.12;-8.49;170.56;12.45;122.8;5.52;5.39;-279.34;-31.38;204.96;5.23;7;-1.95
1;-126.59;-44.98;7.06;71.7;32.51;-9.22;-21.4;-266.7;-110.57;16.26;-21.57;24.19;-12.07;23.57;-0.67;92.25;7.3;7.99;-274.09;-30.68;151.59;1.66;1.48;0.72
1;137.62;52.79;9.54;241.7;94.78;-4.17;-14.71;-262.39;-176.19;10.17;467.02;15.45;-7.37;173.01;9.73;116.85;4.75;4.85;-269.67;-29.29;183.18;4.62;6.96;-2.99
1;-122.49;-45.14;8.48;69.17;42.48;-10.15;-20.96;-260.01;-155.38;20.99;-11.63;33.08;-12.32;26.65;-7.17;131.19;8.15;10.49;-379.28;-33.76;246.01;5.83;1.7;0.76
1;110.16;39.81;10.67;234.84;84.83;-4.86;-13.96;-256.79;-145.78;15.74;460.8;14.6;-9.14;147.77;12.64;117.89;5.42;4.59;-250.83;-33.22;196.01;4.77;6.06;-1.65
1;-118.64;-34.71;7.31;70.72;31.1;-11.35;-16.02;-274.62;-124.56;12.42;-15.47;28.24;-11.44;13.42;2.91;103.4;6.5;9.03;-312.18;-26.1;150.68;5.28;2.02;0.17
1;133.06;61.51;10.64;258.79;83.42;-7.6;-16.34;-265.07;-155.63;3.64;499.9;20.19;-7.88;152.44;10.85;158.42;4.69;6.17;-356.54;-31.73;213.17;5.8;6.48;-3.26
1;-118.99;-45.79;9;76.42;40.57;-8.67;-22.28;-261.24;-158.47;17.9;-8.29;27.58;-11.95;6.86;-1.49;95.37;7.34;8.56;-308.1;-33.98;137.83;12.09;2.46;0.26
1;130.79;51.77;9.85;254.78;92.46;-6.74;-13.33;-257.42;-150.68;5.74;469.4;17.53;-8.36;185.7;12.29;116.09;4.6;5.16;-255.82;-29.13;191.58;4.12;7.32;-2.6
1;-125.04;-51.32;6.54;69.34;37.52;-13.33;-17.25;-276.45;-155.82;21.31;-21.35;25.1;-12.3;13.62;-4.18;126.06;7.63;9.69;-398.04;-31.94;200.87;0.53;1.63;1.32
1;105.87;45.44;11.61;257.49;95.34;-10.47;-18.8;-266.97;-166.7;15.26;491.12;19.64;-9.12;168.23;0.85;152.34;6.31;6.74;-364.66;-33.04;221.26;6.99;6.83;-2.55
1;-141.15;-48.32;8.14;78.56;30.99;-12.12;-16.24;-280.17;-110;9.5;-21.15;26.6;-13.19;-0.03;3.02;83.77;6.14;8.45;-244.85;-32.77;146.92;2.18;1.04;0.45
1;145.28;51.71;10.15;248.24;90.74;2.29;-14.14;-267.94;-190.6;14.3;481.18;18.17;-7.73;132.88;-7.95;149.01;5.28;4.75;-321.04;-33.88;203.07;5.14;7.73;-2.4
1;-121.49;-44.93;7.61;81.94;37.39;-8.62;-23.04;-278.35;-138.67;9.88;-2.34;24;-11.51;20.95;11.1;74.3;7.55;8.12;-239.74;-25.86;100.68;4.97;1.87;0.09
1;135.09;36.88;11.34;256.38;90.58;-3.96;-13.47;-270.27;-145.18;21.38;487.17;16.49;-8.85;156.72;7.99;119.49;5.67;4.22;-257.84;-34.98;178.84;3.74;6.41;-1.86
1;-125.56;-45.14;8.31;75.8;43.64;-13.48;-20.78;-279.88;-163.23;16.16;-10.53;33.02;-12.06;19.61;4.69;123.93;7.62;10.49;-368.66;-32.03;207.95;5.21;2.24;0.16
1;115.75;36.87;10.97;241.74;79.77;-11.55;-13.34;-271.84;-115.99;17.56;477.59;20.73;-8.75;134.01;-11.88;189.22;6.27;7.65;-433.53;-30.32;316.22;6.08;6.73;-2.35
1;-135.73;-45.83;4.99;64.85;33.06;-13.16;-16.35;-252.42;-124.26;9;-27.64;21.33;-11.47;5.57;35.85;97.39;5.67;8;-159.52;-20.44;178.9;1.77;1.57;0.04
1;109.22;47.25;12.01;252.79;88.37;-6.23;-13.16;-303.04;-184.56;14.72;487.81;18.74;-9.02;151.86;-14.16;138.83;5.85;5.14;-312.25;-36.83;199.62;4.4;7.47;-2.24
1;-118.18;-41.76;7.57;77.74;43.38;-11.35;-18.45;-277.72;-138.93;10.39;-14.53;25.98;-11.18;19.14;5.2;81.28;6.49;8.67;-240.23;-24.92;117.12;8.15;1.88;0.18
1;120.68;45.42;12.51;260.43;88.24;-7.67;-15.78;-281.47;-155.01;14.94;489.04;19.1;-8.98;135.66;-8;164.16;6.4;5.34;-357.21;-34.71;219.52;5.83;7.38;-2.23
1;-126.98;-48.72;7.36;75.48;38.95;-14.2;-20.57;-286.78;-138.65;13.63;-19.42;22.3;-11.85;14.7;22.1;83.05;7.65;8.75;-207.36;-24.28;120.66;6.86;1.26;0.27
1;120.85;49.35;12.57;255.89;91;-9.9;-15.51;-270.63;-139.74;26.33;480.76;18.58;-8.85;152.98;9.85;149.4;7.48;5.77;-333.83;-33.75;220.8;5.97;6.79;-2.23
1;-134.13;-42.84;8.46;78.6;50.08;-10.57;-26.09;-295.81;-153.82;15.97;-4.9;32.83;-11.66;36.92;-6.78;136.75;9.49;10.73;-362.4;-28.59;252.54;7.78;1.76;0.24
1;122.77;28.88;12.8;275.11;91.01;-6.96;-14.14;-288.98;-181.11;20.44;503.83;19.72;-9.91;128.69;1.21;141.9;6.43;5.49;-320.52;-35.71;189.31;4.22;6.35;-1.29
1;-121.4;-42.18;9.8;79.64;44.69;-13.84;-25.22;-288.43;-153;13.02;-3.73;27.25;-11.16;44.43;3.23;90.83;8.5;9.06;-281.32;-32.7;108.77;13.07;2.17;-0.11
1;118.1;55.43;12.5;257.05;100.17;-9.42;-15.56;-279.37;-170.16;24.6;495.92;18.62;-9.53;156.72;5.6;157.6;7.69;6.04;-349.32;-34.58;226.21;6.21;7.01;-2.37
1;-127.08;-46.01;5.96;67.51;36.01;-12.74;-19.96;-275.99;-112.47;11.75;-28.48;22.48;-11.33;4.77;2.75;100.68;7.46;8.65;-279.18;-22.69;160.25;1.67;1.37;0.03
1;107.52;38.76;12.72;267.5;96.78;-10.56;-13.28;-274.81;-187.46;15.7;501.14;19.1;-9.91;152.62;2.87;156.4;6.22;6.26;-331.75;-34.38;242.67;6.2;6.72;-1.66
1;-122.99;-44.16;7.67;78.89;37.12;-14.44;-21.6;-286.51;-129.15;10.38;-9.73;26.12;-11.27;10.59;7.31;93.36;7.65;9.24;-286.65;-25.82;129.25;6.13;1.42;0
1;118.12;58.5;12.56;245.72;98.38;-5.33;-16.81;-282.49;-158.36;17.96;473.2;17.55;-8.94;166.27;4.89;154.96;6.93;4.92;-333.48;-33.58;221.61;6.06;8.17;-2.55
1;-140.53;-46.76;8.15;76.16;30.29;-12.69;-16.57;-275.72;-101.54;10.63;-33.94;22.61;-12.85;8.05;0.09;87.64;6.58;8.34;-244.21;-33.41;126.99;1.65;0.78;0.84
1;161.29;70.17;9.65;257.63;97.37;-0.87;-16.1;-258.97;-185.35;3.55;503.76;17.13;-6.38;180.99;15.98;170.6;4.88;6.3;-365.45;-33.24;265.28;6.44;8.1;-4.03
1;-129.95;-51.78;9.58;74.21;45.23;-13.57;-20.13;-292.43;-167.64;17.96;-19.95;31.41;-13.02;14.6;-5.57;121.46;8.07;10.53;-350.54;-36.39;211.26;7.48;1.8;0.84
1;128.07;45.7;12.04;268.29;97.54;-2.68;-11.61;-276.72;-188.22;20.87;493.07;16.74;-9.16;151.19;5.18;137.53;6.42;5.16;-288.93;-35.96;180.14;6.08;7.8;-1.69
1;-125.29;-41.45;8.24;73.89;38.1;-11.21;-25.69;-289.22;-138.72;11.75;-17.16;24.35;-11.12;23.66;5.62;91.49;8.93;8.86;-257.34;-27.87;145.63;6.92;1.58;-0.08
1;117.7;35.83;12.29;262.77;77.95;-9.9;-14.64;-282.64;-144.21;19.62;495.63;20.66;-9.22;118.87;4.76;168.98;6.48;6.66;-353;-34.48;215.35;6.81;7.11;-1.81
1;-144.06;-49.44;6.66;76.29;42.93;-11.36;-19.63;-293.92;-132.27;10.39;-29;24.62;-12.15;17.67;4.23;96.3;7.09;9.19;-238.42;-25.91;172.69;2.89;0.75;0.28
1;130.28;46.47;12.1;252.7;90.6;-7.05;-11.65;-272.96;-141.64;23.24;483.82;13.61;-8.77;142.5;7.73;121.14;7.4;3.76;-287.77;-35.68;195.98;5.67;6.75;-1.63
1;-133.58;-49.94;7.99;77.08;47.06;-12.74;-24.56;-291.5;-160.49;10.69;-21.24;35.32;-11.4;42.64;6.34;138.65;9.11;11.3;-416.8;-24.07;235.16;7.3;1.94;-0.49
1;129.66;49.99;12.64;262.76;98.91;-2.28;-11.88;-277.97;-178.36;20.52;503.39;16.34;-9.42;154.84;-4.31;134.7;6.92;5.13;-256.23;-37;212.34;5.82;8.06;-2.24
1;-133.55;-52.2;6.67;71.07;40.88;-11.47;-22.52;-291.34;-126.01;12.53;-25.19;23.56;-11.51;14.24;3.95;95.86;7.99;9.53;-254.87;-25.47;141.59;3.81;1.22;0.34
1;115.28;49.92;13.24;268.7;103.7;-6.5;-15.96;-292.59;-196.62;15.18;499.79;22.51;-9.73;178.85;-8.84;171.29;6.23;6.99;-353.07;-37.36;269.01;6.06;8.28;-2.87
1;-134.94;-59.54;8.67;85.27;46.09;-20.39;-24.76;-300.89;-125.31;11.87;-9.42;24.59;-12.05;20.24;7.32;77.28;8.55;10.36;-209.57;-30.3;129.47;7.29;0.38;0.68
1;132.02;55.45;13.63;270.83;103.14;3.01;-11.41;-285.03;-193.01;17.19;496.32;21;-9.24;148.51;-3.76;163.76;6.48;4.58;-288.25;-37.25;277.14;7.48;9.88;-2.75
1;-140.71;-61.94;8.19;79.82;40.26;-15.74;-18.39;-289.69;-127.66;12.45;-43.28;24.88;-12.26;34.26;11.1;82.02;7.48;9.97;-215.31;-25.85;124.6;7.73;0.45;0.89
1;123.97;52.26;12.58;267.13;103.41;-2.31;-13.41;-323.24;-206.41;13.33;485.26;19.54;-9.13;166.59;-4.32;164.33;5.76;5.82;-325.11;-36.72;221.39;5.31;8.64;-2.79
1;-133.08;-58.39;8.63;75.91;49.33;-10.41;-22.57;-276.85;-136.91;8.41;-41.04;30.19;-11.29;20.23;14.91;80.55;7.14;10.06;-233.39;-26.03;91.16;11.19;1.87;-0.13
1;118.58;47.52;12.05;246.97;84.67;-2.86;-11.57;-305.39;-172.76;14.17;454.31;19.96;-8.5;135.37;-14.51;170.11;5.58;6.37;-333.08;-37.73;203.29;5.67;8.41;-2.77
1;-135.87;-58.28;8.44;89.55;40.68;-14.78;-18.83;-302.6;-129.77;12.26;-18.7;27.74;-13.01;13.92;19.8;68.18;7.25;10;-167.25;-36.14;100.54;5.81;1.45;0.23
1;137.1;64.23;12.37;239.93;90.62;-0.13;-12.27;-272.17;-159.57;21.19;472.53;21.78;-7.2;161.05;1.88;161.07;7.25;5.33;-295.62;-36.29;262.14;8.21;8.88;-2.92
1;-150.88;-51.84;8.96;78.73;31.84;-18.72;-19.23;-289.4;-107.94;10.34;-42.65;21.54;-13.42;14.8;5.28;73.42;7.13;9.16;-172.57;-36.46;112.65;3.92;0.6;0.27
1;154.69;50.98;12.44;261.46;89.97;-0.91;-12.04;-290.79;-193.39;24.96;504.94;25.84;-7.29;141.46;4.95;175.56;7.33;6.41;-296.67;-34.95;312.38;9.07;8.51;-2.45
1;-129.95;-48.45;9.22;72.41;37.16;-13.11;-23.49;-277.41;-137.69;9.75;-28.07;25.09;-10.86;24.32;16.74;79.88;8.12;9.51;-218.39;-28.27;82.34;13.39;1.81;-0.75
1;115.43;60.63;13.13;257.36;101.11;-3.77;-9.75;-290.43;-170.08;18.88;464.55;23.55;-9.33;170.9;-3.17;157.21;6.85;6.21;-318.73;-37.27;222.38;8.8;7.75;-3
1;-147.28;-60.17;10.86;83.19;51.37;-15.29;-25.02;-298.71;-197.08;10.07;-21.42;28.89;-13.11;34.73;14.02;106.59;8.63;10.52;-272.21;-37.16;176.65;13.15;1.48;-0.27
1;140.39;73.39;12.51;242.48;101.22;-3.97;-12.58;-268.23;-183.47;21.39;459.19;22.82;-7.32;173.26;-4.39;164.93;7.43;6.4;-353.39;-36.98;235.35;8.44;8.67;-3.13
1;-142.18;-57.47;10.88;74.23;42.52;-18.47;-23.55;-283.92;-165.04;10.02;-43.02;27.09;-12.77;44.72;3.79;93.56;7.38;10.2;-274.88;-35.68;154.64;10.9;1.78;-0.28
1;150.01;60.43;10.7;265.09;98.3;1.53;-9.89;-335.02;-190.52;13.45;497.36;16.58;-7.05;156.16;3.08;164.13;4.77;5.37;-283.84;-33.39;267.97;6.12;9.42;-3.52
1;-128.99;-51.16;7.67;70.8;32.26;-12.05;-16.97;-260.07;-111.69;10.05;-30.48;32.53;-11.81;40.32;26.8;79.31;6.16;10.19;-226.25;-24.26;96.83;9.74;1.62;0.56
1;115.23;60.78;12.94;252.31;91.66;-9.08;-14.01;-276.04;-95.27;14.05;468.1;29.45;-8.67;164.48;-3.64;211.53;6.69;9.62;-458.99;-35.7;348.67;8.01;7.48;-4.23
1;-136.73;-60.34;10.2;72.48;50.63;-15.8;-24.46;-272.6;-162.85;10.98;-36.08;31.2;-12.66;49.96;8.71;156.6;8.16;11.49;-425.69;-33.28;269.18;13.02;2.27;-0.01
1;141.94;55.76;12.24;241.58;84.6;-1.15;-10.98;-277.03;-164.48;17.37;467.45;18.53;-7.99;144.49;9.34;177.75;6.26;4.64;-313.23;-36.81;204.69;4.94;9.01;-2.28
1;-133.67;-45.06;8.29;71.66;43.94;-16.64;-21.72;-291.75;-143.81;9.61;-47.41;26.78;-11.43;21.76;5.12;90.07;7.84;10.23;-218.06;-25.89;177.53;6.89;1.01;0.08
1;103.39;48.83;12.87;261.05;106.7;-8.22;-11.17;-292.22;-181.74;16.63;501;20.04;-9.38;180.64;0.71;148.11;6.8;5.04;-249.75;-34.06;240.97;8.63;7.8;-2.81
1;-136.66;-52.66;10.27;89.86;42.27;-15.24;-20.66;-304.48;-151.98;13.82;-16.86;30.91;-13.13;30.96;22.65;95.11;7.55;10.44;-262;-38.91;149.11;11.59;1.07;0.18
1;157.59;65.06;13.42;261.3;100.4;-4.36;-12.39;-271.3;-184.79;21.22;505.97;27.39;-6.13;172.75;6.51;200;7.33;8.02;-378.24;-36.46;344.67;13.25;9.33;-3.48
1;-141.5;-50.49;7.57;70.91;32.84;-12.59;-20.73;-303.19;-121.93;9.79;-56.93;26.8;-11.61;1.9;1.16;89.36;8.33;10.16;-222.38;-28.75;147.8;3.33;1.46;-0.04
1;102.58;51.46;12.83;273.08;122.93;-10.18;-12.04;-289.97;-225.14;14.56;502.08;19.87;-9.5;194.37;-0.04;131.42;6.59;6.14;-278.38;-36.13;249.49;5.74;8.77;-2.92
1;-141.34;-51.37;8.09;78.55;41.85;-19.48;-17.57;-296.25;-131.54;10.87;-56.66;30.65;-12.83;16.11;10.47;86.5;6.39;11.76;-254.98;-30.75;112.5;8.84;0.51;0.44
1;137.08;65.33;13.47;285.71;113.22;-2.27;-11.22;-321.74;-216.99;14.17;502.69;20.59;-7.44;193.48;-1.02;171.58;5.28;6.2;-343.85;-36.19;280.58;9.67;9.72;-3.78
1;-129.14;-49.62;9.85;88.23;44.21;-17.22;-22.05;-305.42;-158.34;10.58;-21.43;26.18;-11.37;21.73;18.9;91.2;8.13;11.07;-245.23;-28.9;121.14;12.97;1.14;0.06
1;107.28;51.12;12.39;237.9;85.95;-4.4;-13.23;-293.74;-143.38;15.64;448.12;30.59;-8.39;134.5;-12.95;174.84;7.35;8.44;-360.49;-35.75;283.96;6.71;8.22;-3.48
1;-148.74;-50.91;9.77;79.13;36.93;-23.43;-18.17;-288.53;-138.69;13.05;-40.19;32.72;-14.27;32.75;12.27;120.13;7;11.9;-266.85;-34.97;181.13;7.07;0.62;1.01
1;154.77;59.89;10.19;236.83;88.18;-6.82;-13.12;-212.63;-86.07;13.52;505.48;25.08;-6.23;176.89;-12.33;232.88;5.96;8.19;-477.31;-31.98;315.22;9.44;8.83;-4.25
1;-135.18;-51.82;8.08;64.2;45.97;-14.65;-19.91;-267.88;-160.57;10.86;-46.91;30.07;-11.11;33.22;37.59;109.13;7.56;11.92;-189.3;-25.58;270.99;9.86;2.77;0.05
1;120.15;38.81;11.78;244.24;77.24;-3.82;-13.48;-252.09;-128.04;23.18;463.54;19.49;-9.05;128.05;-0.29;162.55;7;5.16;-281.88;-35.11;192.72;5.71;7.36;-1.81
1;-159.3;-58.67;8.65;75.18;43.49;-16.03;-19.93;-286.14;-157.91;9.79;-49.05;32.49;-13.71;12.88;16.98;123.79;7.01;11.51;-304.51;-35.54;242.46;4.17;1.16;-0.08
1;157.47;47.83;10.03;235.94;88.22;-9.47;-11.06;-235.27;-108.88;13.79;445.68;21.19;-6.88;167.92;-14.08;195;5.25;7.06;-440.92;-33.75;313.18;4.01;7.62;-2.94
1;-136.13;-42.75;8.59;64.38;41.39;-11.98;-18.31;-259.98;-139.18;9.67;-36.89;34.52;-11.01;26.28;38.46;138.85;7.51;12.21;-330.97;-26.78;250.1;8.54;2.89;-0.14
1;99.19;56.36;12.82;256.43;88.05;-10.34;-16.24;-354.81;-203.73;9.37;472.19;22.46;-9.74;160.27;-27.97;208.63;6.28;8.68;-464.65;-37.26;316.08;7.44;7.05;-3.81
1;-136.41;-63.41;10.68;85.34;48.11;-21.69;-22.61;-278.21;-195.39;11.38;-33.07;33.79;-13.33;37.98;15.57;108.2;7.63;11.67;-284.72;-33.08;154.13;14.14;1.68;0.36
1;156.07;65.1;10.19;248.64;90.22;-1.26;-9.96;-315.39;-162.11;15.2;487.96;23.08;-6.58;150.52;-14.38;186;5.17;6.55;-368.53;-31.84;216.59;7.66;9.63;-4.04
1;-133.19;-62.57;9.95;72.22;45.79;-14.41;-22.88;-273.83;-164.74;9.87;-37.59;30.98;-11.24;32.5;30.48;91.28;8.37;10.49;-215.94;-30.18;147.1;14.42;1.88;0.35
1;116.33;53.89;12.99;254.65;93.32;-5.99;-14.8;-281.24;-174.43;15.75;466.43;20.94;-9.14;155.2;13.67;181.11;6.15;6.92;-412.58;-36.13;295.4;8.32;8.04;-3.01
1;-150.58;-52.4;10.01;77.25;40.39;-16.43;-22.69;-285.13;-137.28;11.08;-35.95;28.59;-13.04;20.94;-7.95;91.8;7.85;10;-252.23;-34.32;128.28;10.83;1.05;0.42
1;152.69;52.64;9.66;243.22;80.93;-4.94;-11.41;-261.56;-120.11;12.87;473.08;22.09;-6.76;140.51;-13.8;187.96;4.56;6.3;-475.6;-29.86;247.04;7.3;8.69;-3.53
1;-137.2;-59.96;8.67;67.21;44.53;-19.64;-20.38;-270.51;-170.52;8.32;-48.11;33.25;-11.87;6.05;35.4;126.8;6.96;12.52;-255.66;-27.16;271.8;10.99;2.08;0.01
1;115.05;51.02;12.86;245.4;87.32;-3.14;-12.17;-261.3;-118.48;17.47;447.15;21.63;-8.47;157.62;5.44;170.4;6.43;6.84;-303.7;-36.24;241.59;8.84;7.46;-3.47
1;-139.11;-47.95;10.93;77.88;54;-16.73;-22.62;-287.61;-203.58;12.48;-33.41;34.23;-12.48;51.72;17.84;129.23;8.37;11.6;-322.62;-31.92;253.96;16.56;1.44;-0.17
1;126.8;61.58;12.21;257.79;91.35;-3.65;-14.72;-339.31;-187.5;11.69;471.77;21.54;-8.03;168.47;-13.11;195.06;5.31;6.14;-390.12;-36.87;233.6;7.35;8.2;-3.83
1;-139.04;-59.11;11.26;71.95;35.84;-15.84;-23.45;-266.6;-140.57;9.71;-44.08;28.4;-13.21;15.89;9.81;76.76;7.66;9.41;-179.67;-35.01;71.27;16.13;2.06;-0.01
1;147.13;60.19;11.22;259.4;96.33;-3.53;-10.03;-316.4;-184.96;15.51;499.08;22.73;-6.53;161.72;6.46;175.61;5.55;5.92;-285.18;-37.21;252.06;8.3;8.95;-3.53
1;-129.7;-54.99;11.23;68.64;52.42;-15.85;-25.25;-267.69;-188.1;9.7;-46.99;35.45;-11.22;45.42;23.62;101.47;8.8;11.65;-247.98;-31.8;177.79;18.97;2.55;-0.56
1;109.32;49.79;12.94;248.79;93.13;-7.4;-28.89;-285.09;-170.78;12.2;461.81;17.92;-8.08;158.35;3.43;164.6;8.07;6.43;-294.96;-36.37;236.61;7.25;6.69;-4.87
1;-145.01;-50.72;11.13;86.04;50.16;-15.47;-22.66;-296.69;-154.75;13.04;-24.11;29.61;-13.32;39.61;5.14;88.51;7.44;10;-213.03;-38.46;133.72;14.48;0.83;0.44
1;165.52;57.42;12.33;260.92;97.32;1;-15.29;-276.96;-201.22;18.17;504.22;23.97;-6.31;143.9;-3.32;177.75;6.54;6.7;-320.13;-36.68;288.57;8.51;10.21;-3.42
1;-136.16;-49.52;8.52;79.24;28.14;-16.03;-19.71;-304.27;-95.91;10.65;-7.85;18.51;-11.5;5.02;10.07;49.96;7.78;9.22;-113.78;-25.87;78.38;4.98;0.15;0.88
1;113.08;52.56;14.13;277.22;119.89;-7.38;-12.53;-288.74;-234.64;17.19;498.66;22.38;-9.1;179.57;14.13;151.48;6.47;6.39;-295.71;-41.76;269.94;8.13;8.66;-3
1;-139.44;-62.16;10.57;89.9;58.32;-15.22;-24.48;-314.93;-158.48;13.73;-26.06;26.16;-12.35;41.92;-3.46;101.51;8.89;11.03;-297.39;-34.35;109.6;13.21;0.31;0.76
1;129.93;61.7;12.78;248.44;104.52;-4.21;-14.41;-265.23;-128.64;17.63;473.19;27.71;-8.41;187.92;3.55;150.69;6.7;7.07;-263.43;-34.13;276.19;8.19;8.56;-4
1;-151.54;-58.89;9.91;75.62;53.08;-16.98;-18.44;-300.55;-181.57;9.75;-49.7;36.49;-12.66;62.82;18.12;145.3;7.58;12.92;-358.16;-28.83;278.27;12.87;0.63;0.62
1;139.08;52.35;13.14;256.32;92.13;-1.41;-9.53;-282.26;-189.18;12.69;497.7;18.27;-7.66;138.71;-2.3;171.06;5.8;5.57;-314.97;-36.36;274.37;7.49;9.13;-3.15
1;-127.77;-42.47;8.55;72.82;38.99;-15.53;-18.66;-271.68;-115.88;12.75;-29.94;29.99;-11.16;16.8;12.09;71.45;7;10.57;-182.58;-27.04;101.91;8.82;1.16;0.82
1;112.46;39.4;12.18;259.19;88.52;-3.17;-12.45;-313.4;-171.62;14.44;461.17;24.15;-8.84;132.58;-9.22;160.19;5.32;6.02;-315.07;-35.38;203.36;6.54;8.35;-3.11
1;-146.76;-52.35;10.85;88.75;41.9;-18.26;-19.54;-299.21;-124.39;14.66;-29.91;30.72;-14.15;34.11;8.4;80.15;6.86;10.03;-183.11;-38.93;120.21;9.69;0.89;1.11
1;164.15;59.07;9.99;250.11;98.27;-2.42;-9.34;-309.48;-198.82;11.8;499.08;20;-5.68;154.19;3.65;169.08;4.76;6.17;-323.79;-33.5;272.41;6.84;9.61;-3.54
1;-128.48;-47.97;7.72;80.73;29.14;-17.66;-21;-293.41;-93.73;11.42;-28.97;23.34;-11.36;16.28;12.38;68.23;7.42;10.09;-166.6;-26.59;96.36;7.39;1.35;0.43
1;100.75;42.3;12.97;263.52;75.11;-4.52;-11.48;-297.53;-144.99;12.29;462.96;21.42;-8.63;129.52;-11.69;205.96;5.49;6.55;-398.14;-34.79;313.88;9.62;7.78;-3.24
1;-144.82;-55.25;10.8;90.49;46.28;-18.72;-23.17;-298.18;-160.74;10.85;-24.82;34.45;-13.61;39.82;10.18;103.39;7.27;11.16;-262.11;-34.17;182.77;13.9;1.7;0.21
1;164.07;53.92;10.78;252.53;91.93;1.82;-10.22;-302.62;-199.3;14.4;492.1;18.97;-6.34;141.14;-5.3;163.29;5.29;4.63;-325.92;-35.57;239.37;5.28;10.13;-2.92
1;-141.99;-53.14;8.61;64.45;31.72;-20.54;-16.19;-275.82;-121.93;8.93;-64.99;24.52;-11.94;4.64;13.41;57.34;6.4;10.32;-121.53;-25.33;84.04;10.37;1.08;0.45
1;119.1;56.52;11.9;266.45;112.38;-2;-9.88;-364.16;-241.72;8.96;470.83;17.97;-8.17;152.51;10.38;154.27;4.83;4.92;-221.72;-38.56;284.31;6.34;9;-3.47
1;-131.51;-53.81;11.41;79.42;62.47;-15.8;-24.05;-276.37;-197.71;9.09;-44.9;35.36;-11.97;73.02;28.63;113.53;7.61;11.94;-321.32;-31.43;145.08;21.54;2.63;-0.52
1;115.94;60.28;11.63;233.34;102.31;-8.85;-13.41;-272.2;-128.04;21.71;459.64;28.64;-8.63;194.71;-22.19;175.02;7.73;7.69;-298.1;-32.94;270.19;8.54;8;-3.07
1;-156.06;-49.39;9.48;62.1;35.44;-23.78;-18.19;-272.74;-152.21;10.92;-83.08;24.76;-13.66;3.2;20.86;102.44;7.87;10.61;-200.91;-33.86;153.41;7.66;0.76;-0.1
1;145.4;76.4;11.13;227.69;94.34;-1.66;-15.56;-237.36;-181.78;16.14;472.84;23.87;-6.43;172.98;-7.44;176.75;6.52;6.49;-366.38;-35.17;269.98;8.55;9.26;-4.65
1;-128.4;-58.33;8.43;55.3;31.12;-17.63;-18.95;-259.07;-128.51;8.47;-78.5;23.43;-11.45;4.26;24.42;76.08;7.43;9.05;-180.56;-24.49;120.16;8.37;2.17;0.43
1;113.74;49.06;11.39;264.3;117.98;-12.27;-16.96;-300.64;-235.8;15.11;479.58;18.67;-9.74;229.89;-17.9;142.97;6.04;7.38;-302.29;-35.78;234.19;4.88;8.34;-2.91
1;-134.12;-58.84;9.85;69.66;34.96;-10.85;-15.86;-276.3;-127.54;7.42;-42.51;28.11;-12.8;4.68;9.21;71.68;5.7;8.85;-184.99;-36.54;69.72;9.82;1.73;0.41
1;155.51;64.37;11.07;250.79;110.2;-3.89;-13.95;-247.26;-210.8;13.05;498.04;21.59;-7.14;218.74;5.77;164.85;5.54;6.9;-331.31;-36.98;259.89;8.63;9.94;-2.79
1;-133.14;-50.65;8.39;72.79;30.82;-16.73;-15.25;-280.93;-119.32;8.48;-36.65;30.23;-11.49;5.35;0.21;66.52;5.96;10.48;-197.2;-26.94;69.35;5.72;0.74;0.7
1;128.55;40.78;13.42;269.49;104.41;-3.57;-11.01;-287.97;-221.35;13.24;493.37;25.56;-8.99;149.41;-5.6;160.07;4.83;7.31;-302.96;-38.35;290.18;7.34;8.57;-2.22
1;-147.71;-57.19;9.66;80.27;32.91;-17.71;-18.32;-291.89;-127;10.51;-39.4;23.73;-13.58;13.24;7.1;61.6;6.21;9.11;-150.61;-34.54;74.83;5.56;0.85;0.42
1;157.83;23.06;10.39;254.31;63.02;-5.1;-10.15;-260.01;-147.06;12.63;502.42;27.75;-6.66;94.57;-12.42;188.81;4.68;7.03;-465.49;-31.95;249.5;5.86;8.79;-2.28
1;-145.94;-47.25;8.98;80.34;43.59;-15.96;-16.69;-297.57;-138.77;9.92;-41.69;30.68;-12.38;22.9;30.57;52.77;6.1;10.58;-87.9;-30;135.08;10.34;0.66;-0.31
1;100.4;27.46;11.42;235.15;73.5;-13.43;-14.9;-270.88;-101.9;16.41;466.71;35.3;-6.14;132.58;-2.83;220.65;6.71;10.22;-542.38;-33.89;391.63;8.82;9.48;-3.5
1;-160.57;-27.13;6.21;83.51;35.41;-21.95;-10.69;-298.89;-103.21;6.66;-44.49;12.91;-15.62;44.43;0.28;123.44;4.11;9.06;-271.61;-30.04;145.17;-1.17;-1.69;0.68
1;177.85;70.18;10.45;240.41;96.13;-1.61;-13.64;-232.53;-196.17;20.79;500.19;16.3;-6.3;160.43;4;184.27;7.15;4.64;-272.58;-36.05;234.91;8.16;8.6;-2.6
1;-142.13;-53.9;10.39;67.5;48.83;-18.77;-21.75;-278.4;-191.99;8.91;-55.73;32.72;-11.13;14.26;0.05;105.31;7.85;12.12;-274.15;-31.22;146.98;16.61;2.49;-0.25
1;111.76;47.42;10.79;256.83;96.35;-1.79;-12.58;-318.25;-209.39;15.44;484.89;20;-8.68;154.02;-11.89;155.42;4.82;5.49;-386.57;-32.79;224.59;8.36;8.76;-3.7
1;-136.56;-65.95;9.78;77.2;41.62;-14.1;-17;-282.71;-131.7;9.64;-33.3;27.54;-13.2;12.02;18.11;58.71;6.42;9.66;-116.91;-32.72;97.37;10.46;1.62;0.54
1;170.55;60.68;11.39;237.45;90.13;-0.13;-11.97;-211.92;-174.56;17.72;487.84;19.49;-7.32;163.43;5.38;159.5;5.94;5.62;-283.35;-35.73;270.14;5.85;9.8;-2.61
1;-140.4;-47.17;8.12;77.95;34.73;-17.75;-18.77;-324.8;-115.63;13.5;-45.72;22.91;-12.15;6.23;2.94;66.56;8.16;10.42;-163.32;-25.27;118.21;2.37;0.02;1.07
1;105.74;33.89;12.31;267.02;103.25;-8.49;-10.05;-308.28;-164.46;14.09;475.95;15.62;-8.62;167.04;1.05;155.24;5.07;5.5;-320.93;-34.96;223.14;5.8;7.99;-2.38
1;-149.85;-46.84;8.97;71.13;43.59;-19.3;-18.27;-284.02;-125.9;10.58;-70.34;29.55;-12.58;17.88;5.19;91.26;6.8;10.75;-189.3;-28.4;128.31;11;1.21;0.46
1;146.49;59.9;10.12;251.21;94.59;3.32;-11.05;-307.08;-184.49;7.05;476.15;18.95;-6.84;156.24;-15.02;169.02;3.91;3.8;-417.14;-28.98;220.44;6.84;9.07;-4.38
1;-133.55;-55.21;8.25;86.44;34.08;-20.24;-18;-307.58;-119.69;11.24;-23.68;27.51;-12.06;23.99;13.17;63.29;6.56;11.53;-167.11;-27.26;101.58;8.7;1.38;1
1;102.31;56.41;12.76;260.23;119.67;-0.15;-13.27;-334.64;-233.02;15.48;458.19;20.9;-8.01;209.13;8.01;161.01;7.44;5.53;-291.84;-35.26;253.85;8.79;9.73;-3.15
1;-132.7;-48.5;8.83;81.78;28.34;-24.97;-15.06;-295.77;-106.72;10.55;-34.81;26.67;-13.54;12.44;-4.31;91.15;5.79;11.47;-184.98;-29.34;110.54;9.57;1.51;0.49
1;159.44;52.19;10.88;256.02;100.96;0.28;-9.21;-310.57;-211.73;14.59;490.09;18.97;-5.73;164.57;10.18;161.9;4.96;5.55;-300.12;-36.74;223.59;8.32;9.92;-3.51
1;-127.39;-51.1;10.15;69.98;38.87;-17.12;-19.77;-270.85;-144.49;9.47;-33.53;31.16;-10.97;21.57;19.2;65.57;7.16;10.69;-158.13;-32.16;93.87;13.09;2.48;-0.04
1;112.33;46.32;12.42;252.89;92.95;-4.9;-12.81;-280.9;-185.13;14.59;459.88;19.98;-8.78;162.62;-6.53;165.29;5.98;6.73;-329.31;-35.49;276.12;7.47;8.11;-3.04
1;-156.57;-55.73;10.53;79.76;50.22;-17.21;-17.4;-298.14;-171.98;8.69;-46.52;33.52;-14.11;17.34;-0.37;94.58;6.43;11.29;-211.21;-33.57;185.79;10;0.69;0.74
1;173.98;66.46;11.49;238.46;103.08;1.39;-12.26;-301.16;-222.8;15.08;476.09;18.11;-5.75;154.82;12.71;154.81;5.94;5.35;-293.22;-37.77;264.23;8.24;10.11;-3.88
1;-133.8;-52.83;9.17;76.78;41.03;-14.48;-20.57;-295.73;-133.46;11.31;-35.94;32.09;-11.45;22.17;15.23;85.87;7.16;11.06;-228.42;-28.81;117.43;10.57;1.43;0.44
1;116.71;44.58;12.32;260.35;88.39;-9.3;-12.12;-286.95;-156.56;13.95;480.45;18.23;-8.46;150.72;-6.83;173.84;5.13;6.52;-298.45;-34.69;288.49;8.13;7.01;-2.74
1;-145.22;-60.5;9.33;75.58;42.07;-15.43;-21.52;-286.63;-154.31;10.66;-50.08;26.1;-13.32;10.67;15.07;92.32;7.67;9.73;-235.66;-33.81;141.03;7.76;2.12;-0.04
1;143.69;60.96;10.94;239.14;99.33;-5.3;-9.9;-258.12;-117.97;18.5;461.48;22.42;-7.38;185.12;-6.05;179.61;6.03;6.15;-332.68;-33.33;247.22;6.7;8.09;-3.2
1;-136.76;-45.72;7.91;64.47;37.13;-22.85;-17.64;-286.3;-133.82;11.63;-43.96;29.79;-11.5;22.67;22.34;113.65;7.35;12.44;-286.82;-25.81;167.28;9.57;1.58;0.07
1;98.18;47.66;12.12;270.46;103;-8.29;-11.85;-288.95;-189.27;10.5;496.39;25.16;-8.73;179.36;-10.35;180.96;5.1;7.36;-396.16;-33.88;239.28;8.57;7.95;-4.08
1;-141.64;-54.73;11.61;78.51;42.5;-24.13;-19.44;-284.36;-158.56;11.29;-51.37;27.24;-13.13;12.69;5.34;82.35;7.29;11.45;-181.77;-31.4;79.27;17.39;1.19;0.25
1;162.15;61.17;10.68;249.86;106.37;1.87;-12.43;-294.93;-214.97;15.99;496.2;20.74;-6.4;178.87;7.91;160.77;6.01;5.51;-296.36;-35.99;245.16;8.12;9.71;-3.59
1;-134.31;-59.87;10.74;78.74;45.66;-15.55;-22.99;-283.63;-178.74;8.87;-29.94;28.8;-12.08;18.96;4.46;74.28;7.14;10.03;-207.73;-32.66;106.09;14.98;1.78;-0.32
1;135.23;57.34;11.58;242.59;109.32;1.74;-13.29;-265.65;-181.19;15.66;447.28;17.6;-8.32;190.45;0.47;139.15;5.96;4.22;-220.02;-35.52;188.14;6.91;9.48;-2.4
1;-134.03;-47.44;6.4;67.83;33.56;-20.3;-13.14;-284.39;-111.11;10.27;-36.91;28.07;-11.68;-1.35;18.03;80.55;5.6;10.87;-174.56;-23.26;128.62;4.63;0.68;0.63
1;109.49;53.06;13.39;280.68;110.95;-9.63;-14.5;-306.79;-214.19;16.62;503.17;22.25;-8.92;186.01;-8.27;178.74;6.61;7.3;-345.73;-36.15;284.05;10.11;9.15;-3.73
1;-143.91;-54.49;10.77;91.43;46.26;-18.37;-17.52;-320.51;-158.83;12.13;-44.38;29.82;-12.84;19.85;14.2;73.29;7.41;11.56;-186.44;-34.72;126.92;14.07;0.34;1.19
1;147.32;54.63;13.39;271.81;87.96;-3.84;-12.06;-300.73;-174.15;7.04;504.88;22.85;-6.95;152.48;-12.9;205.01;4.35;6.88;-363.25;-38.25;303.04;12.98;8.85;-4.68
1;-142.09;-53.05;10.54;85.74;40.96;-21.32;-15.33;-306.98;-144.72;10.64;-33.83;35.4;-12.88;22.28;28.36;81.18;6.39;11.76;-226.15;-36.88;180.81;13.42;1.5;0.28
1;158.46;57.91;11.34;263.61;97.42;-3.81;-11.64;-331.84;-205.79;9.34;502.04;18.46;-7.27;159.38;-25.25;180.95;4.47;6.41;-331.77;-36.98;283.39;7.31;8.99;-3.53
1;-139.92;-58.98;9.79;78.6;38.35;-15.17;-19.31;-287.08;-138.4;10.11;-36.43;31.9;-12.44;15;20.95;63.93;6.37;10.17;-165.73;-30.47;132.49;12.27;1.84;0.21
1;139.08;58.35;12.43;252.74;89.36;-0.57;-12.76;-272.77;-145.86;12.34;472.71;19.8;-7.45;159.21;-1.27;181.85;4.83;5.83;-339.1;-36.42;242.5;8.38;8.46;-3.39
1;-147.9;-51.7;10.88;80;47.2;-21.69;-21.05;-294.68;-175.81;10.74;-30.43;36.34;-13;32.41;17.57;116.53;7.49;12.41;-295.35;-35.67;238.61;13.69;1.38;0.49
1;125.82;54.74;12.68;256.82;93.54;-10.42;-13.94;-272.49;-187.19;19.39;502.63;30.34;-7.89;165.84;-4.03;208.78;7.27;9.91;-384.37;-38.72;284.51;8.72;7.96;-3.82
1;-150.38;-47.8;7.33;83.04;32.39;-17.34;-15.02;-312.08;-116.32;10.65;-56.28;32.62;-12.13;-2.64;12.31;98.68;6.25;12.32;-246.36;-24.7;186.76;8.16;-0.25;1.39
1;162.62;51.74;13.79;268.21;98.08;-1.65;-14.37;-295.77;-206.86;9.18;504.61;23.28;-6.9;157.63;13.82;197.81;6.26;7.29;-301.63;-36.18;384.69;11.47;8.94;-4.07
1;-144.35;-56.6;9.71;72.5;41.74;-12.6;-17.66;-304.97;-159.76;20.63;-57.01;30.53;-13.09;7.56;0.53;113.18;8.04;11.53;-304.97;-36.6;188.59;8.36;1.18;1.23
1;118.96;54.27;13.65;272.8;104.12;-6.79;-13.26;-305.86;-216;13.91;494.01;19.07;-8.79;168.51;-8.75;165.93;5.72;6.52;-322.65;-38.52;284.8;9.85;7.72;-3.34
1;-139.02;-55.42;8.61;81.44;45.6;-19.89;-21.42;-306.59;-150.7;11.08;-28.71;33.63;-11.84;21.88;7.24;103.83;7.44;12.25;-271.03;-27.79;166.44;11.82;0.5;0.34
1;116.55;45.77;13.86;272.61;100.06;-0.02;-21.06;-307.9;-213.92;14.54;482.11;27.16;-8.49;152.45;9.62;162.59;6.61;6.56;-266.14;-37.75;286.1;10.51;8.85;-3.79
1;-137.95;-48.15;11.65;92.34;48.92;-14.96;-21.59;-314.13;-180;11.17;-27.62;32.92;-12.33;35.68;18.19;86.97;7.34;10.98;-247.68;-38.73;114.67;19.3;1.31;-0.54
1;153.52;62.63;13.67;270.91;99.23;-3.4;-12.71;-285.66;-204.93;15;504.07;27.39;-7.18;151.03;-2.84;195.28;6.02;7.83;-363.53;-37.99;304.17;9.07;9.22;-3.34
1;-142.49;-50.83;7.97;77.06;33.73;-18.47;-17.15;-305.93;-100.63;10.99;-43.79;20.72;-11.66;1.84;4.57;61.14;6.97;10.12;-170.82;-25.44;77.73;6.24;0.43;0.36
1;112.78;55.32;13.88;278.7;116.3;-7.9;-14.72;-296.87;-248.65;15.09;499.78;25.31;-8.99;174.65;10.47;166.61;5.61;7.16;-305.79;-38.92;271.62;9.42;8.76;-3.35
1;-142.27;-50.51;9.16;86.14;49.47;-18.8;-17.74;-313.61;-122.8;12.08;-27.98;32.7;-12.54;19.87;0.28;96.5;7.13;13.19;-266.63;-29.25;179.38;9.86;-0.42;1.16
1;126.89;56.64;13.19;266.38;106.99;0.26;-10.23;-304.87;-186.01;12.8;484.94;17.86;-7.57;184.49;-20.66;183.2;4.66;5.3;-404.45;-37.01;203.01;9.44;8.48;-3.72
