label;gyro_z_avg;gyro_x_avg;acc_y_stdev;gyro_z_stdev;gyro_x_stdev;acc_x_min;acc_z_min;gyro_z_min;gyro_x_min;acc_z_max;gyro_z_max;acc_x_max;acc_y_avg;gyro_x_max;gyro_y_avg;gyro_y_stdev;acc_z_stdev;acc_x_stdev;gyro_y_min;acc_y_min;gyro_y_max;acc_y_max;acc_x_avg;acc_z_avg
0;-107.01;-45.3;3.29;56.2;25.7;-8.13;-6.27;-217.1;-89.03;5.59;-41.89;20.99;-12.48;-13.65;15.6;52.96;3.4;6.67;-169.09;-20.11;79.12;-6.85;-0.63;0.02
0;111.38;51.58;4.96;205.42;75.51;-8.6;-12.65;-208.19;-95.11;0.1;375.88;13.73;-9.13;131.03;-5.33;111.29;3.32;5.93;-263.7;-20.89;184.64;-2.13;5.19;-3.25
0;-112.43;-48.89;3.2;60.05;26.01;-9.53;-6.75;-236.69;-92.07;6.05;-42.28;18.48;-12.9;-14.18;13.32;52.06;3.55;6.89;-147.29;-21.36;81.07;-8.07;-1;0.58
0;121.97;59.86;5.65;205.05;77.8;-11.08;-13.25;-214.55;-94.71;0.21;369.94;12.59;-9.07;128.39;-5.16;100.38;3.52;5.7;-242.69;-22.17;140.4;-0.99;5.55;-3.34
0;-111.91;-46.93;2.86;55.65;20.71;-9.72;-5.95;-230.64;-79.26;5.72;-50.74;15.5;-12.6;-21.47;11.56;46.34;3.11;6.49;-124.4;-19.64;83.48;-8.11;-0.74;0.61
0;117.67;49.06;5.9;213.69;72.1;-9.93;-13.42;-221.46;-102.73;1.8;407.67;18.75;-8.98;125.1;-4.73;130.71;4.08;6.84;-275.94;-22.72;198.05;-1.55;5.32;-3.39
0;-111.01;-50.46;3.5;62.22;27.75;-8.78;-7.79;-234.04;-93.96;5.47;-34.99;24.92;-12.94;-10.69;8.59;64.45;3.82;8.15;-182.21;-21.04;124.37;-6.84;-0.78;0.55
0;107.3;56.31;5.82;200.26;79.93;-8.65;-13.91;-222.66;-105.22;4.08;366.26;14.31;-9;135.05;2.37;111.68;3.67;5.89;-290.2;-23.07;181.57;-0.19;5.55;-3.55
0;-107.42;-44.92;2.68;57.13;22.58;-9.45;-3.92;-226.16;-79.12;8.27;-46.2;17.18;-12.45;-11.4;9.05;54.62;3.51;6.42;-169.08;-19.55;80.79;-8.76;-1.09;0.5
0;107.34;59.36;5.33;199.72;73.93;-9.23;-13.72;-218.39;-99.01;1.89;346.64;13.89;-8.95;128.41;-1.26;114.22;3.54;6.24;-296.94;-21.24;198.28;-0.48;5.23;-3.5
0;-110.66;-51.15;3.71;57.71;25.1;-10.06;-8.08;-225.67;-92.84;6.17;-42.7;20.54;-12.82;-17.09;13.29;50.68;3.64;6.93;-158.34;-20.81;99.15;-7.73;-0.87;0.54
0;106.27;61.47;5.1;203.96;86.78;-11.17;-13.87;-213.61;-93.52;2.7;369.58;15.92;-9.4;162.34;4.13;111.3;3.68;7.03;-277.71;-22.15;211.79;-0.56;5.45;-3.44
0;-113.37;-50.22;3.69;59.38;22.43;-8.18;-6.67;-229.93;-82.98;6.2;-46.69;15.09;-12.98;-22.97;9.54;40.59;3.51;6.1;-109.39;-22.06;57.66;-6.78;-0.93;0.49
0;114.74;52.84;5.37;197.43;68.31;-9.87;-14.76;-214.96;-94.49;0.21;360.59;14.05;-8.72;118.2;-1.54;117.77;3.54;6.21;-292.34;-22.85;158.6;-0.49;5.8;-3.64
0;-113.66;-47.21;2.96;56.15;22.81;-10.5;-6.18;-229.58;-82.98;6.96;-52.62;18.18;-12.84;-13.25;13.64;45.6;3.33;6.9;-120.28;-21.47;91.93;-7.99;-1.3;0.5
0;113.89;63.94;5.56;206.99;79.65;-9.79;-13.3;-212.6;-99.39;2.09;380.13;16.73;-8.75;150.02;6.22;122.14;3.4;6.56;-303.02;-22.91;198.54;-1.54;6.01;-3.89
0;-112.04;-50.08;3.32;58.67;25.45;-9.89;-7.68;-228.91;-88.71;7.41;-43.54;18.97;-12.92;-14.87;10.73;62.64;3.95;7.24;-186.47;-20.11;111;-7.08;-1.1;0.63
0;105.73;55;4.78;194.43;77.77;-10.78;-13.92;-219.08;-88.52;0.57;343.99;12.68;-9.1;130.11;-4.02;101.48;3.42;5.82;-285.86;-20.93;173.81;-1.96;5.44;-3.43
0;-111.02;-48.38;2.76;54.63;25.05;-9.01;-8.35;-226.06;-82.79;5.51;-44.21;13.85;-12.73;-15.6;13.09;44.57;3.77;6.28;-103.7;-18.52;70.62;-7.3;-0.81;0.44
0;100.27;56.42;4.9;191.34;77.6;-7.79;-13.07;-220.2;-96.64;1.51;330.29;11.91;-9.17;134.52;-0.52;92.73;3.19;5.47;-246.91;-19.91;134.21;-1.9;5.48;-3.31
0;-111.44;-49.74;2.73;59.73;23.08;-10.25;-4.13;-235.59;-87.75;6.04;-40.73;12.94;-12.65;-20.15;13.81;40.36;3.3;5.9;-110.15;-20.72;67.46;-8.53;-1.03;0.54
0;113.38;59.55;4.88;195.83;76.41;-8.57;-14.33;-213.54;-91.77;-0.22;353.54;14.15;-8.81;133.1;-1.09;94.74;3.2;5.73;-267.24;-21.71;139.05;-1.65;5.82;-3.77
0;-113.58;-48.84;3.56;56.92;22.72;-8.25;-7.72;-225.4;-83.35;6.23;-50.25;13.73;-13.06;-17.19;15.3;42.86;3.64;6.01;-101.27;-20.88;70.27;-6.7;-0.89;0.33
0;111.62;63.96;4.51;197.23;73.51;-8.95;-14.34;-210.58;-97.23;-0.5;364.03;13.56;-8.71;134.88;-3.45;104.75;3.4;5.97;-281.65;-20.31;125.99;-1.86;5.73;-3.92
0;-114.94;-48.82;3.54;59.52;24.5;-9.78;-6.21;-232.81;-87.93;5.9;-46.09;16.8;-12.98;-14.72;12.95;51.19;3.35;6.66;-155.26;-22.73;81.45;-8.06;-1.17;0.37
0;116.53;67.93;4.78;193.19;82.5;-11.71;-14.17;-195.19;-94.39;1.16;353.42;15.3;-8.89;160.33;-0.89;107.5;3.57;6.4;-286.33;-23.35;175.11;-1.9;6.18;-3.85
0;-115.02;-47.08;3.43;58.82;22.44;-10.57;-6.26;-231.33;-81.82;7.05;-46.61;14.73;-12.99;-18.14;14.87;51.54;3.65;6.58;-150.65;-21.28;78.54;-7.88;-1.2;0.36
0;113.48;56.54;4.5;194.4;71.87;-9.66;-13.03;-205.57;-90.31;0.13;353;14.47;-8.59;128.69;-5.79;106.18;3.19;5.89;-287.82;-21.88;155.71;-2.59;6.01;-3.71
0;-110.2;-45.26;3.67;54.51;19.18;-9.52;-7.91;-216.18;-75.79;6.11;-41.69;21.24;-12.84;-19.15;14.28;49.53;3.72;7.23;-120.68;-20.87;83.33;-4.61;-0.75;0.24
0;105.85;58.22;4.92;193.18;73.83;-9.45;-12.87;-201.73;-88.75;1.83;345.91;16.56;-8.97;149.82;4.26;113.06;2.86;6.33;-271.89;-21.96;143.37;-2.22;5.83;-3.62
0;-109.76;-44.97;3.17;54.65;20.34;-9.88;-5.58;-223.11;-76.45;7.07;-45.17;18.03;-12.55;-17.51;10.89;52.14;3.54;6.64;-154.46;-19.45;71;-7.26;-0.85;0.54
0;105.42;53.88;4.62;193.64;74.58;-9.85;-13.9;-209.24;-95.57;1.02;347.03;13.42;-9.4;133.33;-6.67;109.04;3.44;6.17;-269.6;-19.16;155.28;-3.06;5.58;-3.41
0;-109.66;-46.78;3.59;56.69;25.99;-7.84;-7.09;-224.53;-89.55;6.84;-42.11;20.68;-12.52;-13.44;11.81;50.4;3.59;6.71;-161.91;-20.14;76.22;-6.77;-0.49;0.29
0;107.19;50.29;5.19;189.86;74.46;-8.98;-14.93;-203.89;-97.91;7.59;334.85;13.86;-9.18;127.23;-1.56;106.07;3.73;5.72;-269.62;-21.71;158.14;-1.65;5.24;-3.07
0;-107.01;-44.53;3.74;57.88;23.51;-10.62;-7.59;-218.15;-87.34;7.4;-41.98;22.46;-12.44;-16.38;13.75;55.38;3.66;6.98;-184.03;-22.57;64.33;-4.47;-0.37;-0.06
0;108.6;52.06;5.38;200.61;75.29;-12.58;-12.58;-197.71;-115.43;6.81;360.93;16.7;-9.43;126.45;-3.94;117.5;3.5;6.23;-292.01;-24.37;159.93;-1.66;5.56;-3.1
0;-109.06;-46.32;3.79;59.24;27.26;-10.44;-9.35;-222.87;-103.99;7;-39.76;26.27;-12.27;-13.45;13.69;66.23;4.12;8.21;-222.2;-20.5;77.28;-1.65;-0.11;-0.26
0;108.43;54.77;5.09;197.16;73.14;-13.17;-13.81;-208.88;-99.37;-0.09;357.85;12.66;-9.37;135.77;-9.36;110.21;3.31;6.56;-300.71;-22.54;170.32;-2.09;5.77;-3.61
0;-115.58;-50.29;3.44;53.41;22.97;-10.59;-8.42;-213.74;-96.59;7.01;-48.81;21.1;-12.77;-20.65;20.64;53.65;3.76;7.28;-159.19;-20.03;83.21;-5.27;-0.43;0.08
0;105.4;59.14;4.45;192.25;72.02;-14.71;-13.01;-187.42;-101.63;2.09;351.34;13.22;-9.23;125.92;-8.52;126.49;3.3;6.63;-342.78;-21.74;166.57;-3.83;5.83;-3.79
0;-113.72;-53.32;3.34;52.11;21.48;-11.22;-9.56;-207.09;-94.12;7.46;-44.87;22.18;-12.85;-29.19;23.83;52.21;4.31;7.98;-126.59;-19.76;101.58;-4.72;-0.29;0.14
0;103.72;55.57;4.53;191.14;70.83;-12.07;-16.07;-196.46;-95.4;1.31;348.37;15.21;-9.33;126.19;-5.24;94.42;3.69;6.63;-270.2;-18.1;116.17;-3.02;5.54;-3.72
0;-115.19;-50.13;3.43;54.37;22.14;-8.99;-9.02;-224.06;-87.49;6.78;-48.28;20.12;-12.99;-23.44;20.24;48.43;4.09;7.61;-124.82;-21.49;73.92;-4.73;-0.8;0.36
0;100.9;54.31;4.98;193.41;73.66;-12.68;-15.73;-206.27;-107.68;2.42;344.9;13.58;-9.19;123.88;-7.73;121.09;3.8;6.82;-319.01;-20.22;211.39;-2.74;5.53;-3.63
0;-112.14;-47.7;3.59;57.06;25.86;-9.7;-9.3;-218.72;-98.82;6.27;-38.6;22.06;-12.8;-17.64;22.72;50.38;4.22;7.91;-125.46;-22.48;85.46;-5.66;-0.68;-0.09
0;99.3;59.01;4.45;195.69;79.82;-11.62;-13.54;-208.94;-106.95;2.97;357.49;17.86;-9.49;143.37;-6.43;111.32;3.54;6.58;-299.84;-20.1;138.46;-3.83;5.85;-3.81
0;-117.79;-51.17;3.49;54.78;23.28;-10.65;-9.22;-217.33;-92.68;7.28;-45.9;21.73;-12.95;-18.76;17.82;55.05;4.53;8.36;-154.13;-20.64;82.89;-5.27;-0.9;0.21
0;108.64;55.78;4.32;197.31;75.15;-11.5;-13.58;-195.55;-106.47;1.63;364.78;15.01;-9.2;132.99;-2.19;111.21;3.63;6.17;-300.92;-18.24;161.14;-2.87;5.91;-3.69
0;-112.35;-48.45;3.51;55.95;24.76;-9.88;-8.61;-222.71;-93.26;6.14;-42.8;23.84;-12.82;-19.24;17.72;50.71;3.82;7.92;-143.88;-21.31;80.97;-6.03;-0.56;-0.21
0;104.8;51.72;5.18;200.58;72.14;-11;-14.56;-205.7;-104.25;2.25;368.69;13.41;-9.1;115.41;-5.43;128.3;3.82;5.75;-314.65;-21.6;195.7;-2.2;5.53;-3.52
0;-115.07;-49.03;4.09;57.29;26.29;-10.9;-11.78;-215.79;-101.8;6.64;-35.73;26.66;-12.86;-18.65;18.99;53.26;4.48;8.46;-157.16;-23.77;98.61;-5.14;-0.45;-0.15
0;108.66;58.45;5.58;201.75;78.28;-13.41;-12.75;-190.34;-109.73;5.99;371.02;16.96;-9.45;138.47;-3.95;126.62;3.73;6.81;-322.72;-21.47;179.7;-2.41;5.59;-3.57
0;-111.4;-46.97;3.82;54.63;26.52;-8.93;-8.56;-217.92;-101.38;6.34;-44.31;28;-12.58;-17.08;19.02;60.23;3.85;8.2;-184.85;-22.46;105.77;-3.94;-0.14;-0.38
0;101.67;60.74;5.38;202.55;71.69;-11.49;-12.76;-206.76;-118.12;2.99;367.04;14.17;-9.63;129.89;-7.05;130.84;3.58;7.29;-339.01;-20.96;204.34;-3.28;6.2;-3.92
0;-113.68;-50.98;2.63;51.5;21.67;-10.41;-5.35;-214.89;-85.89;7.67;-49.89;21.24;-12.42;-24.89;20.37;46.25;3.65;7.2;-144.62;-18.43;61.12;-5.35;-0.62;0.06
0;107.38;53.71;4.63;201.33;69.88;-15;-10.83;-196.66;-99.04;0.62;373.41;13.93;-9.22;109.84;-4.44;119.34;3.09;6.53;-302.24;-21.17;176.79;-3.61;5.87;-3.61
0;-112.69;-45.83;3.86;51.53;24.42;-10.25;-10.73;-221.52;-93.65;7.11;-47.79;24.28;-12.85;-17.85;26.22;50.45;4.16;8.03;-131.33;-24.47;90;-4.93;-0.37;-0.13
0;102.68;57.54;5.88;204.27;70.81;-12.25;-13.58;-211.51;-112.08;1.85;362.61;17.81;-9.24;131.83;-9.76;133.69;3.52;7.37;-331.9;-21.7;203.91;-2.1;5.63;-3.92
0;-115.28;-50.61;3.73;56.23;24.02;-11.48;-8.36;-222.77;-97.56;7.8;-47.33;24.69;-12.88;-21.91;24.18;63.7;4.01;8.1;-196.49;-21.77;101.98;-6.02;-0.75;-0.02
0;116.13;61.08;5.35;210.05;69.82;-14.16;-12.7;-192.96;-98.21;-0.6;382.15;15.14;-8.74;116.43;-10.5;128.13;3.23;6.9;-316.34;-23.09;189.87;-2.35;5.84;-4.04
0;-116.65;-47.4;4.39;59.89;28.08;-13.3;-10.84;-225.33;-98.36;5.82;-45.2;24.24;-13.05;-14.94;22.12;52.57;4.22;8;-134.99;-23.78;108.61;-5.39;-0.42;-0.18
0;112.8;57.24;5.04;199.33;73.46;-14.84;-15.02;-185.29;-111.27;4.44;365.31;19.62;-8.88;129.86;-6.28;126.1;3.92;7.36;-336.81;-21.48;178.92;-1.98;6.17;-3.84
0;-119.81;-50.92;3.88;57.64;26.68;-10.63;-9.26;-231.1;-95.32;8.4;-52.76;25.05;-13.49;-19.6;24.01;68.11;4.55;9.09;-196.41;-22.68;125.87;-6.15;-1.19;0.15
0;113.96;60.89;6.21;216.62;76.56;-11.89;-14.88;-206.66;-119.63;0.7;393.25;18.62;-8.42;125.38;-5.81;125.53;3.65;6.66;-315.02;-22.44;165.12;-0.23;5.69;-3.99
0;-118.21;-52.99;3.44;56.06;23.7;-11.2;-8.76;-222.55;-94.95;7.94;-48.16;27.25;-12.93;-26.71;20.72;71.58;4.27;9.14;-217.71;-21.44;123.01;-5.88;-0.21;-0.03
0;107.26;60.09;5.45;197.31;78.8;-16.93;-16.6;-196.94;-105.34;5.78;358.78;13.43;-9.57;145.38;-7.16;128.98;4.16;6.87;-338.07;-20.89;187.32;-0.84;5.89;-3.99
0;-115.79;-50.92;2.82;55.6;21.04;-10.39;-6.77;-226.21;-84.96;7.32;-45.56;21.28;-12.69;-25.7;22.63;50.42;3.87;7.15;-148.88;-19.21;76.22;-6.41;-1;0.15
0;104.8;57.15;5.91;210.41;76.72;-14.78;-15.16;-201.27;-113.72;4.41;377.85;15.8;-8.94;133.59;0.83;125.4;3.85;7.17;-340.02;-20.95;202.71;-0.23;5.72;-3.9
0;-117.63;-54.03;3.66;57.67;25.97;-11.95;-8.47;-233.66;-93.17;8.41;-49.43;26.04;-13.19;-23.38;18.87;70.09;4.36;8.98;-216.04;-21.6;113.83;-6.18;-0.72;0
0;120.43;59.14;5.88;210.51;72.04;-14.42;-15.72;-196.5;-111.4;1.22;397.13;12.59;-8.61;135.51;-1.37;135.18;3.85;6.62;-331.95;-22.07;210.02;-0.21;5.63;-4.12
0;-117.6;-51.95;3.78;60.82;26.83;-10.71;-8.06;-233.66;-95.54;7.28;-51.47;27.03;-13.38;-16.45;20.8;75.32;4.21;9.05;-218.3;-22.01;134.94;-7.12;-0.89;-0.04
0;120.14;66;5.43;205.95;78.11;-15.21;-15.16;-200.24;-113.06;0.1;368.79;18.65;-8.52;140.16;-3.22;124.34;3.77;7.68;-320.62;-22.63;186.22;-1.47;5.99;-4.17
0;-116.99;-53.26;3.93;55.22;24.27;-12.27;-7.92;-218.92;-100.54;8.05;-54.14;24.37;-13.14;-24.35;22.52;70.22;4.15;8.28;-213.78;-23.34;107.13;-5.86;-0.41;-0.02
0;107.44;63.19;4.63;195.67;78.1;-14.47;-14.62;-192.69;-121.94;4.62;356.84;15.24;-9.04;146.2;-6.71;95.25;3.45;6.71;-285.08;-18.34;97.26;-3.37;5.58;-3.75
0;-115.06;-52.79;3.55;55.84;27.78;-11.64;-9.12;-224.64;-100.87;9.29;-54.72;29.36;-12.99;-21.66;20.62;63.25;4.77;9.02;-200.12;-20.04;107.36;-4.45;-0.55;-0.2
0;109.17;63.84;4.88;200.39;78.54;-12.15;-14.31;-205.27;-105.82;0.18;365.34;17.76;-9.04;139.28;-5.27;110.08;3.82;6.84;-299.19;-20.1;156.5;-1.7;5.81;-3.98
0;-116.18;-49.03;3.03;55.02;25.47;-9.31;-6.75;-227.96;-93.84;6.47;-44.45;22.64;-12.76;-19.72;19.28;53.79;3.66;7.88;-160.56;-19.89;91.08;-6.57;-0.91;0.02
0;110.01;60.18;5.05;206.92;77.35;-10.48;-10.93;-208.08;-103.42;0.12;378.42;15.58;-9.11;137.55;2.55;112.84;3.02;6.13;-289.65;-21.89;161.78;-2.93;5.82;-3.64
0;-117.13;-48.66;4.19;56.79;21.28;-11.24;-9.62;-225.3;-83.14;6;-51.7;20.66;-13.2;-19.23;16.96;50.56;3.69;7.41;-148.21;-23.63;81.52;-5.98;-0.75;0.17
0;115.48;57.63;4.93;201.72;71.68;-13.43;-12.38;-190.58;-109.16;2.59;363.57;15.3;-9.26;119.73;-6.44;123.92;3.5;6.63;-298.72;-22.14;210.98;-2.33;5.59;-3.36
0;-117.33;-49.4;3.89;58.54;23.14;-14.12;-7.05;-228.98;-94.7;7.18;-49.97;23.54;-13.04;-21.47;19.4;58;3.82;8.35;-182.03;-22.85;98.91;-4.66;-0.66;-0.08
0;120.86;62.6;5.09;206.61;73.15;-15.66;-12.96;-189.82;-111.45;-0.59;380.49;15.75;-8.74;126.7;-5.5;111.72;3.22;6.74;-281.6;-22.29;140.27;-2.1;6.31;-3.89
0;-117.09;-50.81;3.72;57.99;24.23;-9.8;-8.55;-230.42;-91.14;6.54;-48.31;23.46;-13.03;-19.27;16.06;60.41;3.91;8.23;-182.4;-20.87;100.03;-6.78;-0.59;0
0;110.85;56.84;6.07;208.2;72.16;-12.38;-12.82;-207.69;-117.94;1.12;386.35;15.26;-8.77;131.66;-2.86;122.03;3.56;6.71;-308.3;-20.46;153.11;-0.96;5.8;-3.83
0;-115.58;-52.21;3.51;53.92;22.31;-12.94;-6.67;-223.94;-93.73;7.16;-54.42;30.58;-12.87;-25.17;20;87.8;3.76;9.75;-277.56;-19.78;165.84;-5.93;-0.51;-0.18
0;110.21;59.03;5.49;205.87;71.37;-12.79;-13.67;-211.82;-109.62;2.55;376.94;15.13;-9.25;129.38;-2.17;121.22;3.37;7.05;-307.93;-19.75;190.17;-1.92;5.85;-3.73
0;-115.29;-48.85;3.71;57.6;22.82;-11.07;-7.83;-219.51;-97.91;7.76;-43.74;25.45;-12.7;-21.33;19.97;59.59;3.88;8.16;-194.69;-20.73;101.48;-4.56;-0.52;-0.01
0;104.57;55.18;5.73;203.34;71.38;-14.26;-13.65;-196.32;-121.99;5.6;365.77;18.78;-9.09;126.16;-3;110.93;3.5;6.99;-275.81;-20.97;164.36;-2.48;5.9;-3.66
0;-111.19;-49.55;3.35;50.1;21.15;-14.77;-6.91;-201.84;-97.34;8.44;-45.24;29.51;-12.28;-26.78;19.34;72.94;3.94;8.84;-247.31;-19.48;119.87;-3.04;-0.17;-0.09
0;109.68;52.84;5.19;202.8;62.23;-12.12;-10.22;-184.99;-103.16;0.61;382.27;15.24;-9.03;107.61;1.91;114.38;2.21;7.04;-270.38;-18.2;145.9;-3.54;5.83;-3.76
0;-115.4;-46.38;4.5;55.44;21.36;-9.26;-12.26;-216.96;-92.81;9.82;-50.4;19.08;-13.14;-16.26;11.53;50.47;4.53;7.33;-143.03;-26.08;84.84;-5.15;-0.48;0.1
0;108.25;58.32;5.24;202.73;69.04;-11.16;-11.21;-198.84;-100.28;4.01;363.53;14.46;-9.11;121.57;-0.73;122.55;2.95;6.22;-306.78;-21.78;195.2;-2.62;5.9;-3.34
0;-114.67;-49.49;3.2;53.21;20.24;-10.75;-8.31;-217.84;-88.29;7.3;-50.04;19.31;-12.66;-24.07;19.24;50.91;3.78;7.19;-139.71;-20.44;90.63;-6.48;-0.39;0.05
0;113.98;62.61;5.63;209.54;69.51;-11.66;-11.48;-202.3;-95.79;-0.44;388.4;15.03;-8.97;132.51;-0.96;125.04;3.18;6.49;-292.44;-20.81;173.75;-2.53;5.73;-3.77
0;-117.88;-53.56;4.29;57.41;20.96;-11.36;-10.86;-230.19;-90.53;6.28;-49.89;21.44;-13.31;-26.6;16.92;61.36;4.08;8.08;-177.39;-24.28;96.88;-5.88;-0.62;0.11
0;109.2;59.33;5.16;205.62;75.87;-10.78;-13.61;-206.59;-111.78;3.19;376.81;15.16;-9.13;129.41;-7.35;106.37;3.58;6.2;-288.87;-19.84;152.69;-2.28;5.42;-3.52
0;-114.46;-49.8;3.42;56.39;25.28;-9.36;-8.52;-224.39;-95.08;6.12;-46.87;24.07;-12.68;-19.49;22.03;53.41;3.72;7.89;-163.4;-20.98;98.87;-5.68;-0.46;-0.22
0;108.76;66.83;4.79;193.14;72.16;-10.94;-13.21;-195.45;-103.6;0.43;353.21;14.27;-8.82;127.53;-1.35;110.98;3.21;6.19;-287.96;-19.88;133.54;-3.76;5.78;-3.94
0;-117.02;-52.91;3.66;48.21;24.19;-9.38;-9.42;-213.09;-98.81;6.09;-62.21;18.31;-13.04;-26.33;21.79;53.65;3.96;7.22;-142.93;-22.28;80.61;-6.23;-0.31;-0.15
0;105.56;58.61;5.17;199.3;68.08;-12.63;-13.33;-203.28;-108.4;1.45;360.23;14.3;-9.29;130.82;-5;115.84;3.1;6.43;-281.76;-18.85;178.68;-2.77;5.73;-3.65
0;-114.29;-48.64;2.8;46.26;21.55;-9.33;-6.32;-208.03;-96.7;6.73;-57.07;21.71;-12.42;-28.03;22.63;48.26;3.53;7.14;-146.71;-18.73;82.96;-5.74;-0.32;-0.07
0;101.15;58.68;4.91;194.34;67.31;-11;-13.04;-191.36;-113.14;0.03;364.62;15.5;-9.01;125.21;-6.76;99.87;2.99;5.72;-250.13;-18.35;106.83;-3.48;5.64;-3.85
0;-115.64;-52.36;3.71;53.02;23.23;-11.25;-9.98;-218.76;-97.41;7.54;-52.5;22.88;-12.89;-24.76;21.37;59.25;4.56;7.96;-166.69;-22.61;76.93;-6.36;-0.37;-0.07
0;107.14;54.91;4.66;201.31;71.59;-14.51;-13.64;-206.56;-106.31;2.57;365.73;14.84;-9.48;122.65;-2.81;110.49;3.4;6.72;-298.76;-20.73;167.25;-2.16;5.42;-3.6
0;-116.25;-41.44;3.48;56.55;27.1;-10.7;-10.02;-231.17;-95.92;5.57;-49.66;27.76;-12.73;-8.84;24.72;54.39;3.96;8.68;-154.62;-21.66;107.41;-5.19;-0.57;-0.27
0;102.19;64.78;5.06;199.52;76.46;-13.74;-16.01;-217.79;-117.54;2.26;362.22;16.84;-9.19;129.46;-11.34;121.68;3.73;6.84;-319.23;-19.33;128.99;-2.62;5.56;-3.94
0;-117.58;-50.8;3.03;54.72;25;-9.66;-6.83;-226.76;-99.49;6.93;-50.63;29.26;-12.75;-25.25;22.86;71.58;3.71;9.38;-228.81;-18.55;153.48;-5.55;-0.61;-0.16
0;107.89;71.53;5.01;201.69;79.55;-11.76;-13.11;-205.37;-103.35;0.74;370.84;15.75;-8.87;143.22;-1.24;114.4;3.53;6.5;-292.84;-19.13;147.08;-2.24;5.89;-4.17
0;-118.45;-51.52;3.38;56.93;26.34;-10.29;-10.71;-223.17;-93.58;7.15;-45.31;25.05;-13.06;-17.75;21.36;57.8;4.34;8.58;-156.46;-21.74;101.9;-5.45;-0.6;0.22
0;107.14;68.26;4.94;197.03;81.9;-12.78;-15.11;-207.04;-108.94;0.08;361.86;15.84;-8.85;153.49;-3.11;100.53;3.71;6.27;-291.67;-17.99;133.68;-1.96;5.59;-4.18
0;-117.58;-50.18;3.06;53.5;25.22;-11.42;-8.9;-222.65;-92.39;5.95;-53.39;25.81;-12.96;-20.8;21.33;73.41;3.97;8.86;-211.98;-20.77;159.92;-6.77;-0.77;0.02
0;106.67;58.06;4.74;195.2;73.54;-13.56;-14.1;-201.58;-109.76;3.48;349.96;18.13;-8.9;123.29;-4.09;104.12;3.36;6.43;-283.79;-19.29;120.86;-2.33;5.97;-3.79
0;-118.67;-49.61;3.59;52.54;21.42;-10.45;-8.33;-223.65;-93.98;7.4;-56.45;23.58;-12.99;-26.35;18.24;54.4;3.94;8.44;-162.63;-22;83.91;-6.16;-0.77;0.21
0;105.88;59.47;4.71;195.7;73.26;-11.67;-11.98;-198.33;-101.4;2.09;352.28;16.27;-8.78;127.41;-3.27;118.21;3.14;6.69;-289.37;-21.24;214.04;-2.07;6.04;-3.74
0;-112.16;-48.87;3.27;53.39;24.78;-9.88;-10.04;-225.24;-87.55;7.73;-45.19;21.64;-12.6;-17.85;16.01;49.11;4.1;7.53;-135.59;-22.77;81.59;-5.74;-0.47;0.25
0;102.2;56.13;5.18;202.48;76.37;-11.81;-14.82;-216.69;-108.65;1.19;362.17;18.49;-9.13;126.51;-0.59;130.85;4.13;6.92;-313.23;-21.05;195.79;-3.11;5.65;-3.81
0;-111.98;-52.39;3.61;52.47;22.75;-8.69;-9.51;-214.91;-96.75;6.57;-46.25;21.27;-12.76;-21.71;13.24;56.3;4.33;7.64;-172.73;-22.79;75.29;-5.29;-0.41;0.29
0;104.64;58.76;5.19;197.56;78.69;-9.94;-13.46;-202.91;-122.11;2.99;362.12;14.98;-9.36;129.16;2.55;86.93;3.29;5.76;-225.24;-16.91;114.08;-2.11;5.56;-3.49
0;-116.79;-54.71;2.96;50.04;22.24;-8.99;-7.47;-205.13;-100.87;8.36;-54.23;25.15;-12.46;-31.27;13.91;60.02;4;7.99;-197.44;-17.52;93.07;-3.66;-0.09;0.18
0;118.97;59.93;4.54;195.76;67.73;-11.26;-13.13;-187.14;-93.32;0.97;360.02;13.86;-9.16;119.39;2.12;105.92;3.36;5.96;-260.27;-18.45;149.05;-3.4;5.86;-3.43
0;-117.21;-53.58;3.86;55.53;23.91;-9.88;-10.27;-226.56;-92.74;5.56;-45.25;15.23;-13.11;-20.14;7.9;49.23;3.92;6.93;-133.28;-24.58;85.1;-6.97;-0.6;0.39
0;104.46;53.3;4.63;197.2;76.83;-11.92;-13.89;-211.26;-104.46;2.24;362.1;16.64;-9.13;122.97;0.25;101.93;3.54;5.97;-271.7;-19.52;125.19;-2.81;5.62;-3.35
0;-109.87;-44.58;3.05;48.55;24.03;-8.42;-9.39;-192.51;-93.51;5.41;-44.1;23.98;-12.5;-16.18;20.12;51.83;3.89;7.92;-135.61;-21.34;94.37;-6.75;-0.2;0
0;91.01;43.12;4.99;191.79;64.73;-7.83;-10.93;-184.87;-109.45;8.08;354.16;16.28;-9.37;105.43;0.45;93.33;3.14;5.2;-209.51;-19.42;157.65;-2.87;5.33;-2.78
0;-118.47;-44.45;3.09;46.63;20.91;-12.61;-9.35;-194.33;-90.17;8;-53.83;20.5;-12.59;-18.84;11.24;56.97;3.98;7.57;-170.13;-20.92;77.77;-6.68;-0.64;-0.27
0;123.84;56.76;5.23;202.65;63.15;-12.16;-11.94;-165.61;-108.36;1.06;395.21;16.49;-8.65;112.7;-5.38;125.26;3.21;5.98;-270.63;-20.2;166.56;-3.12;6.73;-4
0;-112.06;-51.26;3.92;51.96;24.75;-10.76;-11.96;-210.07;-97.56;6.21;-44.97;24.74;-12.82;-19.88;19.28;61.31;4.31;8.51;-173.78;-24.45;112.92;-4.97;-0.47;-0.13
0;107.11;56.66;4.73;194.39;72.37;-11.48;-11.96;-191.36;-105.08;-0.66;358.99;16.01;-8.98;129.56;-3.75;102.15;3.1;5.89;-259.97;-20.09;133.61;-3.75;5.83;-3.96
0;-116.39;-52.11;3.35;50.94;23.66;-10.54;-9.56;-214.95;-91.15;5.94;-49.3;19.97;-12.89;-19.89;15.24;52.56;4.26;7.43;-165.49;-22.14;75.83;-6.06;-0.9;0.24
0;105.38;64.37;4.08;195.12;80.5;-13.21;-12.4;-202.32;-111.93;0.64;359.87;17.66;-9.34;147.62;2.55;105.26;3.02;6.46;-302.07;-20.22;120.47;-3.91;5.87;-3.96
0;-114.38;-48.13;4.28;47.72;25.93;-9.17;-11.63;-202.74;-108.63;5.96;-54.22;21.11;-12.85;-19;19.68;38.68;4.52;7.25;-121.28;-25.28;55.11;-4.44;-0.08;-0.23
0;100.38;57.1;3.95;192.13;70.93;-10.72;-11.79;-195.44;-104.16;0.27;350.32;17.7;-9.07;126.49;-5.31;100.81;3.09;6.45;-263.51;-19.15;141.22;-3.84;5.36;-3.59
0;-119.21;-52.12;4.08;52.56;24.8;-11.01;-9.42;-218.14;-100.87;5.46;-55.78;16;-13.28;-19.77;20.96;49.65;4.32;7.21;-108.18;-24.47;96.63;-6.73;-0.64;0.07
0;110.27;60.49;4.12;192.01;74.5;-11.31;-13.96;-193.12;-111.46;-0.4;360.43;15.89;-9.07;134.23;-5.07;82.7;3.24;5.83;-236.41;-17.24;90.22;-3.63;5.9;-3.8
0;-113.87;-48.93;2.97;55.43;25.41;-10.22;-6.25;-229.74;-98.29;6.77;-46.88;22.36;-12.77;-18.92;15.82;53.79;3.74;7.88;-166.77;-19.99;101.76;-7.46;-1.03;0.16
0;118.51;54.01;4.56;199.27;63.94;-10.12;-13.09;-195.14;-96.21;-0.14;371.09;12.08;-8.97;112.3;-3.51;101.03;3.22;5.17;-249.81;-20.74;132.87;-3.39;5.94;-3.57
0;-112.88;-47.61;2.93;55.68;26.86;-9.65;-8.78;-227.07;-90.61;5.15;-42.3;19.63;-12.68;-12.54;19.76;47.77;3.54;7.49;-122.29;-20.59;88.31;-6.28;-0.77;0.12
0;111.72;53.55;5.37;200.26;70.24;-9.67;-12.7;-199.9;-96.18;2.01;372.38;14.85;-8.81;122.28;-7.79;101.8;3.2;5.59;-239.51;-20.33;158.71;-1.25;6.1;-3.45
0;-110.94;-49.1;3.27;57.4;23.84;-9.65;-6.94;-221.5;-82.04;5.3;-40.27;20.32;-12.83;-13.41;14.6;50.86;3.3;7.09;-152.26;-20.36;103.26;-6.91;-1.02;0.15
0;107.28;48.41;4.42;192.74;70.14;-9.72;-11.29;-203.39;-101.55;0.26;350.1;12.13;-9.01;123.11;-3.86;98;3.15;5.37;-232.86;-21.17;121.4;-3.65;5.56;-3.07
0;-109.48;-45.57;3.3;58.08;25.92;-10.19;-8.82;-221.75;-91.04;4.66;-42.14;22.32;-12.57;-9.9;15.06;46.48;3.7;7.24;-135.33;-20.54;84.68;-6.79;-0.69;-0.02
0;105.9;53.01;5.12;199.85;76.58;-8.5;-12.99;-208;-108.88;2.17;354.7;16.41;-8.9;133.4;-3.52;92.91;3.6;5.99;-217.77;-20.28;158.35;-2.68;5.52;-3.13
0;-112.38;-53.23;3.55;61.03;28.51;-9.59;-6.73;-232.01;-99.36;6;-43.92;25.55;-12.82;-18.58;15.59;64.34;3.65;8.15;-225.64;-21.49;97.2;-5.05;-0.72;0.06
0;112.05;55.25;5.4;189.01;71.49;-11.25;-13.23;-201.9;-98.73;4.12;350.2;12.26;-8.6;126.8;2.82;86.77;3.25;5.71;-236.97;-21.23;122.49;-1.43;6.04;-3.31
0;-110.95;-47.78;3.26;56.43;25.49;-11.57;-9;-223.78;-83.76;7.12;-47.72;22.17;-12.56;-11.14;14.93;61.66;4.01;7.51;-187.06;-20.57;112.76;-6.39;-1.02;0.28
0;111.19;48.49;5.2;203.19;68.62;-8.84;-12.24;-217.04;-95.84;0.19;364.61;12.14;-9.3;121.98;-4.14;114.89;3.18;5.31;-258.21;-19.46;150.05;-2.45;5.26;-3.25
0;-110.43;-48.68;2.63;53.09;23.34;-9.15;-8.9;-216.38;-92.46;5.14;-49.05;20.54;-12.6;-20.07;21.02;63.04;3.48;7.59;-172.53;-19.53;127.59;-7.72;-0.59;0.04
0;111.27;58.02;5.06;205.1;67;-10.64;-10.99;-208.89;-98.34;-0.32;371.96;13.52;-8.84;116.58;-7.72;104.57;3.13;5.76;-254.23;-21.73;132;-3.67;5.23;-3.52
0;-110.64;-47.52;3.74;54.72;28.63;-8.55;-10.96;-214.93;-95.91;6.11;-45.79;22.84;-12.82;-12.07;18.85;56.96;4.4;7.77;-158.73;-23.75;114.63;-7.24;-0.08;-0.13
0;107.56;51.69;5.45;196.3;66.58;-9.89;-11.32;-197.94;-118.61;1.55;343.9;11.21;-9.09;114;-9.68;118.26;3.25;5.39;-274.48;-20.22;162.41;-1.93;5.57;-3.42
0;-103.29;-47.93;2.1;48.11;22;-7.36;-6.37;-196.69;-91.37;7.2;-42.51;18.94;-11.88;-17.74;16.46;41.15;3.46;5.83;-130.68;-16.95;65.35;-7.34;0.06;-0.06
0;102.21;54.03;5.26;200.11;72.73;-10.62;-11.47;-188.89;-116.2;-0.12;364.28;14.11;-9.13;132.25;-4.97;102.43;2.76;5.93;-239.94;-20.19;167.42;-3.21;5.06;-3.61
0;-107.34;-52.15;3.25;50.72;26.4;-7.42;-9.34;-202.62;-103.02;4.93;-41.64;23.27;-12.75;-18.76;20.13;57.81;3.82;7.19;-174.02;-21.5;115.83;-6.75;-0.05;-0.18
0;107;50.96;4.79;190.83;66.27;-10.02;-11.24;-185.76;-98.58;-0.18;348.83;17.32;-8.66;116.41;0.87;90.17;2.9;5.87;-234.21;-20.64;113.55;-3.25;5.72;-3.2
0;-110.64;-45.96;3.28;51.74;26.23;-10.38;-8.67;-215.43;-92.2;5.2;-46.32;24.1;-12.62;-14.26;14.31;60.18;3.51;7.86;-187.34;-21.6;127.74;-6.17;-0.66;-0.12
0;104.89;53.17;5.43;203.94;71.47;-10.82;-10.24;-188.23;-94.79;3.23;379.01;19.22;-8.84;117.41;-3.44;116.23;3.34;6.72;-265.56;-21.65;154.49;-2.08;5.95;-3.24
0;-108.69;-41.73;3.09;49.55;21.2;-8.81;-8.14;-199.23;-86.48;3.96;-48.96;15;-12.35;-14.62;18.37;43.11;3.41;5.7;-95.57;-20.47;83.27;-6.25;-0.5;-0.09
0;104.73;54.2;4.04;179.03;65.69;-11.11;-9.77;-177;-104.44;0.04;326.3;15.62;-9.26;116.51;-7.76;92.88;2.25;5.63;-239.33;-18.3;100.95;-4.13;5.67;-3.22
0;-107.79;-47.22;3.1;47.68;22.33;-7.98;-7.98;-201.43;-99.57;5.18;-45.83;21.03;-12.45;-21.99;19.85;43.9;3.13;7.02;-126.1;-21.89;93.44;-5.81;-0.43;-0.05
0;94.51;53.25;3.61;172.02;69;-7.89;-11.79;-191.45;-93.69;0.33;319.37;13.93;-9.12;132.4;0.05;85.37;2.67;4.99;-225.91;-17.26;128.31;-4.99;5.61;-3.3
0;-109.21;-44.56;3.44;49.04;22.86;-8.05;-8.43;-208.65;-85.92;4.5;-53.45;14.48;-12.67;-18.98;17.7;37.67;3.41;6.08;-104.8;-21.63;61.35;-6.05;-0.48;-0.17
0;104.2;56.07;3.68;179.22;69.7;-8.83;-11.25;-192.38;-97.72;-0.32;330.37;14.69;-8.79;131.67;-5.98;88.03;2.66;5.04;-225.59;-18.8;128.6;-4.16;5.78;-3.28
0;-108.15;-44.85;2.82;52.33;22.97;-8.62;-7.31;-217.18;-84.08;5.73;-47;16.95;-12.5;-17.98;19.32;42.71;3.37;6.2;-129.2;-19.67;71.41;-7.75;-0.7;0.12
0;107.73;54.2;4.58;186.94;66.54;-10.78;-11.73;-198.75;-95.28;1.06;338.14;11.56;-8.94;121.4;-6.38;105.14;3;5.33;-242.16;-19.61;147.51;-2.47;5.7;-3.43
0;-109.35;-46.43;2.53;48.2;22.51;-10.14;-7.8;-212.12;-85.18;5.44;-51.44;14.61;-12.26;-16.95;18.07;34.57;3.3;5.67;-93.92;-18.51;70.16;-6.84;-0.49;0.21
0;112.79;55.97;5.09;198.39;63.61;-11.04;-11.21;-194.14;-95.69;0.52;366.26;12.26;-8.7;104.94;-0.82;116.51;2.75;5.92;-295.91;-19.79;168.99;-2.35;5.8;-3.68
0;-109.05;-47.43;3.14;50.09;23.74;-12.94;-9.96;-209.22;-87.76;5.26;-49.31;21.8;-12.55;-19.13;17.89;65.66;3.95;7.85;-198.36;-21.26;113.07;-5.77;-0.24;-0.27
0;95.97;58.85;3.82;184.2;71.09;-9.66;-12.36;-199.58;-98.75;0.61;340.15;14.41;-8.91;128.84;-4.62;89.31;2.72;5.21;-245.95;-17.52;118.03;-4.18;5.86;-3.62
0;-107.46;-43.59;3.05;46.47;20.76;-8.93;-9.63;-199.26;-88.2;4.68;-51.4;17.39;-12.38;-21.68;21.12;35.71;3.52;6.18;-95.04;-20.67;54.26;-5.66;-0.23;-0.03
0;100.76;53.37;4.22;180.53;64.24;-9.63;-10.98;-185.13;-95.94;1.71;336.21;13.28;-8.84;119.41;4.16;108.07;2.41;5.34;-266.74;-19.12;151.66;-3.97;5.45;-3.07
0;-111.81;-46.52;3.3;54.71;24.57;-10.9;-8.06;-219.61;-87.76;6.95;-48.32;24.83;-12.72;-18.42;16.72;67.14;3.71;8.2;-210.11;-20.59;114.08;-5.02;-0.34;-0.27
0;107.49;64.17;4.76;188.6;69.45;-11.27;-13.21;-189.96;-104.4;2.26;340.65;16.21;-8.45;131.99;2.57;120.82;3.3;6.11;-278.49;-19.37;195.16;-2.93;5.71;-3.7
0;-111.84;-45.18;3.51;51.87;21.73;-10.78;-9.15;-211.45;-91.39;7.99;-52.75;22.03;-12.53;-19.03;20.34;54.63;3.69;7.53;-181.08;-21.56;94.84;-5.56;-0.1;-0.27
0;100.71;63.39;4.5;192.69;71.42;-10.51;-12.04;-190.79;-112.62;1.61;348.44;18.29;-8.88;130.27;-9.5;97.03;3.05;6.29;-250.98;-19.84;107.87;-4.29;5.55;-3.57
0;-108.71;-49.81;3.5;51.05;25.89;-13.97;-9.07;-208.79;-97.9;6.17;-49.99;32.59;-12.59;-21.55;24.37;71.3;3.72;9.48;-230.9;-22.09;154.9;-4.99;0.06;-0.33
0;101.28;58.12;4.81;192.84;71.31;-12.03;-12.82;-195.28;-98.98;1;350.85;17.79;-9.09;125.91;-5.6;100.46;3.25;6.53;-262.42;-20.26;117.82;-3.41;5.31;-3.51
0;-111.19;-46.74;3.43;52.25;22.86;-11.97;-9.46;-214.37;-87.01;5.28;-46.98;26.77;-12.71;-20.93;18.02;55.66;3.45;8.22;-169.04;-22.05;113.56;-5.45;-0.58;-0.08
0;107.47;51.03;4.65;195.5;66.4;-9.59;-11.08;-204.86;-102.19;1.81;362.16;12.18;-9;118.16;-2.34;99.96;2.89;5.19;-240.56;-20.98;136.33;-3.61;5.42;-3.23
0;-110.4;-43.36;3.34;51.77;23.24;-9.03;-10.05;-209.09;-85.45;6.93;-51.4;25.21;-12.68;-17.13;17.11;59.12;3.78;7.91;-176.82;-20.82;111.65;-6.27;-0.23;-0.41
0;104.96;51.56;4.24;186.38;66.1;-8.77;-10.29;-199.12;-108.63;6.25;334.61;17.11;-8.8;118.77;-4.67;93.46;2.73;5.73;-229.86;-19.91;137.04;-4.08;5.76;-2.95
0;-113.78;-45.42;3.17;54.16;23.67;-7.39;-8.07;-217.91;-90.57;7.43;-49.88;20.03;-12.37;-18.71;17.08;49.25;3.77;6.94;-141.73;-21.03;70.66;-5.15;-0.32;0
0;109.95;63.46;4.78;192.75;70.29;-11.4;-11.8;-204.95;-96.64;-0.05;355.62;16.33;-8.83;141.52;-8.3;99.08;3.53;6.36;-265.65;-20.62;139.77;-3.84;5.77;-3.76
0;-109.25;-48.61;3.59;52.07;23.9;-9.61;-8.26;-210.52;-93.12;5.59;-47.17;15.17;-12.56;-16.27;12.26;45.57;3.53;6.21;-120.91;-21.53;77.77;-6.73;-0.31;0.15
0;106.55;54.92;4.8;202.28;67.04;-8.83;-11.33;-190.26;-108.35;2.68;372.88;12.67;-8.91;122.33;0.39;107.48;3.1;5.33;-255.7;-18.04;140.99;-2.08;6.21;-3.67
0;-108.69;-45.29;2.71;51.62;20.34;-7.27;-7.58;-207.94;-78.19;5.23;-47.4;16.76;-12.19;-18.71;14.34;39.81;3.09;5.61;-123.1;-19.11;51.12;-7.49;-0.54;0.17
0;109.53;55.48;5.33;201.72;67.91;-12.11;-11.23;-193.36;-104.81;0.94;366.37;18.2;-8.59;130.15;1.29;106.11;3.05;6.83;-268.32;-21.55;151.21;-2.72;5.69;-3.49
0;-110.62;-46.7;4.29;55.7;29.34;-10.79;-9.39;-210.95;-102.41;5.37;-49.76;23.69;-12.74;-8.64;20.14;47.75;3.99;7.12;-144.6;-24.27;86.64;-4.66;-0.17;-0.13
0;110.31;61.96;5.32;202.01;70.24;-12.12;-13.4;-193.02;-109.06;-0.09;378.49;19.23;-8.36;135.35;-1.72;105.8;3.36;7.13;-292.11;-19.69;132.55;-2.03;5.81;-3.96
0;-111.49;-48.13;3.13;55.43;24.9;-14.2;-7.23;-219.19;-91.8;5.96;-43.17;22.52;-12.61;-10.33;16.88;64.57;3.47;7.56;-217.7;-21.7;86.39;-7.54;-0.61;0.18
0;111.37;52.65;5.66;199.49;67.02;-13.35;-13.86;-202.42;-109.33;4.74;369.35;13.43;-8.74;109.57;1.12;113;3.5;6.12;-299.51;-20.68;162.71;-1.49;5.84;-3.66
0;-114.82;-45.49;3.27;52.58;22.46;-10.51;-8.31;-210.63;-86.45;8.37;-51.32;25.73;-12.63;-14.27;19.29;67.74;3.57;7.56;-229.05;-20.27;119.2;-6.56;-0.57;0.01
0;111.61;54.59;5.22;201.94;73.32;-12.22;-12.11;-201.09;-116.52;2.71;364.62;18.61;-8.84;130.29;-7.88;115.17;3.06;7.2;-301.76;-21.51;166.25;-2.63;5.51;-3.54
0;-112.39;-45.03;3.71;54.72;29.68;-10.89;-10.05;-210.59;-107.56;8.99;-48.56;28.67;-12.76;-12;23.06;54.77;4.21;8.44;-174.94;-22.06;116.15;-4.66;-0.11;-0.46
0;120.02;60.32;5.36;212.19;71.63;-15;-10.32;-203.26;-108.28;-0.41;388.25;18.34;-8.79;142.12;-5.32;128.38;2.94;8.05;-321.85;-23.68;228.96;-2.29;5.93;-3.71
0;-116.18;-51.36;4.54;60.11;29.1;-11.44;-9.96;-223.82;-100.93;6.77;-49.7;24.53;-13.24;-13.98;16.51;56.44;4.29;8.17;-167.51;-24.91;97.89;-3.49;-0.48;-0.06
0;114.64;56.86;5.18;202.9;71.78;-12.54;-13.2;-198.66;-113.37;5.28;366.76;15.99;-8.59;123.58;1.83;104.1;3.28;6.27;-280.38;-21.6;136.66;-1.64;5.87;-3.49
0;-114.68;-46.02;3.58;57.54;24.42;-10.15;-8.65;-223.91;-96.21;7.44;-47.27;24.54;-12.63;-15.01;17.39;52.7;3.75;7.79;-162.67;-21.42;77.16;-4.92;-0.41;-0.16
0;109.7;64.58;5.76;205.11;71.53;-15.38;-12.09;-211;-106.02;-0.59;375.85;16.8;-8.63;130.47;-2.81;114.04;2.93;7.44;-306.46;-23.17;146.64;-2.23;5.81;-4.14
0;-112.92;-49.31;3.94;58.96;29.32;-13.18;-9.05;-225.59;-97.31;6.58;-46.13;28.72;-12.87;-7.64;19.88;61.45;4.19;8.55;-194.89;-23.13;119.57;-5.38;-0.39;0.23
0;107.29;59.89;5.26;199.44;69;-11.8;-12.77;-218.85;-96.13;-0.41;361.85;14.95;-8.9;117.75;0.47;108.51;3.03;6.63;-302.79;-21.46;146.21;-2.75;5.76;-3.78
0;-118.29;-50.2;3.94;60.01;25.44;-11.54;-10.19;-237.73;-88.86;6.34;-52.77;19.66;-13;-13.95;19.93;56.8;4.29;7.24;-161.21;-24.35;107.13;-6.41;-1.03;0.61
0;107.98;62.36;5.78;199.3;74.71;-14.02;-14.6;-217.86;-101.59;0.05;361.51;17.13;-8.55;133.98;-2.13;113.02;3.46;6.93;-314.09;-20.87;143.67;-0.39;5.56;-3.9
0;-115.28;-50.8;4.13;58.57;26.69;-14.69;-9.28;-223.98;-92.69;5.62;-44.85;29.33;-13.16;-12.06;22.22;65.73;3.88;8.7;-216.29;-24.01;139.55;-5.01;-0.77;0.02
0;113.53;58.96;5.51;205.6;71.7;-12.78;-12.89;-206.51;-107.8;2.01;377.83;16.59;-8.6;129.72;-4.22;107.66;3.25;6.8;-287.13;-20.69;136.48;-1.09;5.48;-3.62
0;-118.03;-49.38;3.37;61.65;26.71;-10.06;-8.2;-236.48;-91.51;6.25;-48.22;24.19;-12.82;-13.35;15.9;53.42;3.85;7.74;-177.48;-20.59;83.91;-6.22;-0.91;0.32
0;110.4;59.91;6.25;204.66;74.15;-12.72;-14.58;-218.55;-109.62;0.41;374.9;14.56;-8.78;140.46;2.62;102.52;3.5;6.49;-273.84;-22.36;185.17;-1.49;6.26;-3.96
0;-113.6;-44.67;3.52;51.63;26.85;-16.41;-7.64;-207.3;-96.49;5.04;-54.58;29.09;-12.62;-11.41;21.93;60.01;3.25;8.42;-213.32;-21.34;112.21;-5.58;-0.68;-0.28
0;109.07;61.33;5.75;202.81;73.91;-13.5;-12.84;-185.98;-106.24;4.5;382.01;16.24;-8.83;136.74;-3.54;108.52;3.17;6.63;-295.14;-21.34;121.15;-1.28;5.61;-3.82
0;-113.13;-49.66;3.04;54;23.06;-13.43;-8.36;-214.05;-91.04;7.63;-48.41;25.18;-12.65;-16.9;17.59;71.28;3.54;8.21;-228.16;-21.06;124.73;-7.35;-0.85;-0.13
0;108.75;58.09;5.38;203.37;70.93;-11.81;-11.92;-205.78;-102.17;-0.35;373.24;15.01;-8.89;133.74;-6.66;120.23;3.01;6.45;-292.21;-20.89;152.02;-2.23;5.86;-3.81
0;-117.36;-49.36;3.85;57.24;25.79;-11.21;-9.37;-229.02;-97.52;6.08;-51.23;16.84;-13.12;-13.5;19.44;41.44;3.88;6.79;-110.69;-22.85;91.02;-6.65;-1.01;0.07
0;117.69;63.42;5.55;205.35;78.2;-13.43;-14.01;-204.55;-115.3;-0.16;375.53;22.06;-8.63;142.85;-2.43;106.05;3.66;6.94;-278.81;-21.97;151.19;-1.44;6.06;-3.86
0;-115.76;-49.84;4.09;55.69;26.14;-13.42;-8.73;-207.84;-108.79;4.95;-45.15;25.75;-12.91;-13.18;18.54;53.97;3.59;7.9;-182.99;-23.94;107.57;-5.09;-0.78;-0.07
0;126.44;67.75;6.24;212.96;71.18;-15.56;-14.17;-180.3;-105.6;0.6;409.42;17.57;-8.48;139.7;-4.78;133.37;3.89;7.3;-321.78;-21.66;177.07;-0.83;5.49;-4.04
0;-115.24;-55.8;4.06;56.3;27.19;-10.89;-10.49;-220.17;-101.48;6.04;-44.36;22.69;-12.96;-14.8;20.9;54.11;4.06;7.94;-163.87;-23.95;113.7;-5.48;-0.47;0.34
0;112.97;56.76;6.25;210.92;81.72;-14.46;-13.29;-212.1;-109.96;4.93;396.35;17.5;-9.01;142.64;2.53;113.16;3.81;6.96;-286.83;-22.91;148.42;-0.94;5.34;-3.3
0;-120.25;-53.95;3.92;62.46;27.03;-10.58;-10.68;-245.01;-90.9;7.59;-51.17;24.38;-13.23;-15.97;15.49;64.73;4.4;8.32;-183.27;-22.92;116.34;-6.77;-1.16;0.38
0;126.84;68.5;6.06;218.68;75.42;-11.26;-14.45;-224.75;-104.81;0.74;395.51;21.08;-8.59;137;-5.74;112.91;4.17;7.07;-289.75;-22.96;153.81;-0.98;5.85;-3.77
0;-119.77;-52.98;3.98;57.89;28.3;-14.97;-11.34;-227.71;-105.12;6.22;-46.14;28.57;-13;-11.1;20.14;63.97;4.49;9.36;-182.54;-23.91;128.32;-4.73;-0.7;-0.04
0;126.92;69.19;6.23;220.89;75.94;-13;-13.98;-203.37;-124.68;-0.22;423.41;18.92;-8.65;142.61;-6.1;112.91;3.84;6.83;-280.31;-21.18;142.12;-0.9;5.87;-4.1
0;-112.03;-53.28;3.91;57.52;32.5;-18.37;-8.92;-227.06;-112.19;6.44;-45.96;31.49;-12.8;-9.73;20.37;75.57;4.06;9.94;-263.68;-23.44;138.22;-5.04;-0.37;-0.04
0;110.35;54.34;5.45;210.61;70.23;-10.84;-12.45;-225.13;-106.78;-0.34;382.98;16.56;-9.12;123.32;0.36;113.89;3.29;6.48;-287.29;-21.92;178.92;-3.09;5.69;-3.48
0;-116.46;-49.94;4.34;59.26;30.53;-13.89;-11.26;-226.63;-101.28;4.84;-48.42;25.09;-13.11;-8.69;16.43;48.58;4.37;8.11;-151.92;-24.59;87.56;-5.37;-0.97;0.2
0;113.83;58.84;6.34;213.9;77.98;-14.18;-13.77;-220.63;-101.75;-0.14;393.55;18.67;-9.05;135.68;2.62;106.87;3.62;7.06;-281.9;-22.56;156.55;-0.76;5.74;-3.44
0;-114.04;-45.93;3.88;57.34;26.27;-13.04;-10.66;-223.61;-87.54;4.76;-45.39;26.5;-12.97;-8.67;17.29;66.39;3.97;8.86;-202.73;-22.34;139.69;-6.04;-1.25;-0.07
0;110.61;61.86;5.09;202.37;75.2;-11.94;-12.5;-212.88;-106.91;0.09;364.31;16.13;-8.98;132.19;-5.53;103.53;3.31;6.37;-287.9;-21.61;133.6;-2.53;5.7;-3.58
1;-104.53;-61.92;3.75;44.69;25.54;-11.45;-12.1;-235.03;-137.8;6.63;-58.78;22.07;-12.59;-30.16;14.84;57.44;4.48;8.22;-143.06;-21.49;111.57;-3.58;1.24;-0.72
1;99.45;46.76;5.1;179.28;64.2;-8.01;-10.83;-197.42;-124.16;5.48;351.86;13.69;-8.15;133.41;-4.53;137.42;3.81;4.93;-269.35;-21.59;234.17;-0.67;6.1;-3.44
1;-97.27;-54.13;3.85;58.91;25.95;-15.35;-6.82;-216.8;-100.49;7.05;-29.49;26.18;-12.51;-27.5;11.49;55.99;3.77;8.62;-203.88;-24.73;60.7;-1.18;0.21;-0.18
1;95.12;50.83;6.38;186.94;72.47;-9.91;-12.07;-203.05;-125.08;2.91;341.68;17.81;-7.93;147.31;-5.14;119.46;4.01;6.38;-258.65;-24.16;216.33;1.64;7.07;-4.08
1;-97.23;-58.58;3.14;51.25;28.38;-10.05;-8.68;-199.95;-107.16;7.12;-35.24;26.71;-12.45;-31.36;24.48;57.56;4.26;8.16;-173.52;-18.32;65.93;-2.79;0.47;-0.33
1;104.28;44.55;5.05;185.87;61.49;-9.71;-12.35;-178.97;-101.11;6.21;360.51;13.83;-8.17;116.27;1.7;106.89;4.07;5.56;-226.55;-17.83;181.34;-0.14;6.25;-3.42
1;-106.78;-53.28;3.51;60.42;28.95;-13.85;-7.93;-231.59;-113.38;9.5;-38.85;25.07;-13.23;-18.38;14.38;71.09;4.31;8.79;-219.1;-24.31;99.21;-6.86;-0.39;-0.22
1;102.32;55.8;5.51;193.67;75.56;-10.25;-13.87;-204.42;-117.91;1.77;357.19;17;-8.09;145.22;-18.74;112.2;4.11;6.23;-253.75;-22.15;195.64;0.28;6.45;-3.9
1;-96.31;-62.08;3.58;55.89;27.99;-12.75;-8.46;-203.62;-115.26;6.48;-34.11;33.33;-12.66;-30.65;30.89;58.93;4;9.69;-154.57;-18.01;114.82;-5.67;0.57;-0.09
1;92.38;49.98;3.8;170.1;76.34;-10.22;-12.72;-187.76;-114.38;2.62;301.72;16.21;-8.91;132.88;-16.25;97.05;4.12;5.86;-208.56;-17.44;161.43;-2.52;6.28;-3.46
1;-97.13;-63.89;2.45;38.81;28.5;-9.71;-7.29;-165.98;-134.32;5.71;-49.72;23.13;-12.19;-35.91;17.9;55.59;3.84;7.25;-140.49;-16.02;79.37;-5.5;1.37;-0.81
1;91.85;35.98;4.84;165.12;50.55;-8.76;-9.73;-145.48;-76.55;3.8;326.87;14.09;-8.39;108.95;6.54;93.74;2.8;5.49;-226.88;-18.77;121.66;-1.54;6.85;-3.36
1;-109.72;-45.6;3.44;53.29;24.5;-11.63;-6.34;-218.06;-90.69;6.48;-47.19;28.95;-13.37;-3.69;11.99;64.84;3.5;9.13;-183.82;-20.16;91.42;-4.48;-0.49;-0.41
1;114.81;51.56;4.79;187.45;74.53;-3.82;-11.71;-208.71;-132.07;4.89;347.1;14.81;-7.61;140.28;-16.8;119.42;4.12;4.64;-251.99;-13.31;192.86;0.17;7.5;-4.15
1;-94.4;-63.74;3.02;47.48;26.95;-11.13;-8.71;-186.12;-115.51;5.96;-37.32;28.19;-12.45;-32.95;27.43;70.11;4.07;9.07;-205.08;-18.59;88.41;-4.11;1;-0.83
1;92.82;43.55;4.34;179.03;73.2;-9.37;-8.54;-167.38;-120.78;3.81;346.95;13.17;-9.02;121.08;-15.88;100.45;3.09;5.07;-221.7;-19.52;154.23;-2.44;5.75;-3.59
1;-105.69;-63.1;3.44;44.72;23.78;-8.6;-11.76;-213.77;-120.88;3.99;-58.37;19.78;-12.12;-41.47;27.32;47.79;4.28;6.79;-125.05;-19.22;78.67;-2.72;1.84;-1.07
1;92.1;45.55;3.75;175.54;69.54;-8.94;-11.09;-183.33;-110.06;3.16;324.01;11.1;-9.11;137.31;-3.86;81.27;2.94;4.92;-213.26;-17.23;149.55;-3.67;5.54;-3.23
1;-105.66;-53.49;2.82;47.4;27.05;-11.07;-8.46;-196.37;-114.06;5.52;-48.09;29;-12.36;-29.25;22.06;51.97;3.58;8.57;-144.68;-17.92;100.63;-4.26;0.92;-1.16
1;94.33;46.04;4.05;190.16;68.71;-11.12;-10.63;-224.82;-130.29;2.73;338.77;12.92;-8.88;108.42;-6.49;112.34;3.23;5.74;-255.04;-18.44;207.09;-2.56;7.04;-3.82
1;-92.99;-49.28;2.44;41.78;26.58;-9.73;-8.57;-170.21;-98.31;6.72;-46.42;29.83;-12.07;-22.53;21.78;53.19;4.05;8.41;-178.92;-17.31;78.96;-4.07;0.83;-0.48
1;87.02;40.03;5.3;185.88;59.28;-9.91;-10.1;-172.99;-92.4;6.88;358.34;13.81;-8.75;111.29;1.42;101.51;3.61;6.38;-237.47;-19.74;131.72;-0.67;6.35;-3.47
1;-103.13;-46.09;3.34;54.6;28.59;-14.89;-7.71;-210.23;-101.29;7.12;-39.69;31.59;-12.52;-13;24.92;68.27;3.94;9.38;-214.61;-19.39;99.74;-1.6;0.53;-0.77
1;98.6;48.3;6;189.31;67.18;-11.46;-12.41;-203.71;-123.22;6.62;361.53;16.4;-8.4;128.46;-21.55;144.11;4.12;6.71;-317.96;-19.8;195.43;1.2;6.79;-4.28
1;-98.82;-53.48;2.91;51.84;28.92;-11.36;-11.66;-208.51;-106.89;8.34;-35.43;33.3;-12.39;-23.71;21.89;69.62;4.63;9.39;-226.27;-20.23;123.98;-4.43;-0.15;-0.76
1;98.27;52.79;5.15;184.12;72.21;-12.02;-9.58;-188.73;-108.88;4.51;342.75;13.15;-8.52;137.57;-9.69;100.57;3.02;5.69;-232.32;-20.87;178.23;-0.25;6.94;-4.24
1;-108.95;-56.55;2.76;56.63;27.83;-11.45;-8.35;-220.44;-108.94;7.42;-39.59;30.13;-13.04;-20.38;20.18;66.93;4.49;9.41;-202.12;-18.78;122.78;-5.61;-0.43;-0.09
1;110.25;51.85;4.81;187.12;65.57;-11.82;-11.96;-188.07;-104.49;1.47;355.09;11.97;-8.27;126.15;-1.92;111.55;3.15;5.49;-268.22;-17.92;188.28;0.13;6.17;-3.86
1;-110.78;-55.26;3.39;61.16;27.65;-11.87;-6.92;-239.62;-100.66;8.32;-43.22;26.47;-13.44;-21.48;23.74;65.44;4.09;8.81;-191.4;-23.68;113.2;-7.74;-0.85;0.14
1;108.53;51.83;6.5;204.28;69.37;-12.69;-15.34;-220.27;-123.95;10.58;371.44;14.03;-8.77;121.78;-7.18;124.66;4.95;7.4;-267.31;-23.2;249.45;1.07;5.59;-3.65
1;-109.05;-55.07;3.82;58.93;29.76;-12.27;-12.89;-223.37;-112.04;8.35;-44.63;32.88;-12.25;-25.56;17.04;74.06;4.66;9.85;-236.4;-20.43;136.56;-2.93;0.2;-0.54
1;99.13;49.84;5.62;197.05;73.15;-12.76;-12.56;-204.03;-126.21;6.05;361.23;11.1;-8.91;122.13;-4.7;114.63;3.73;5.85;-265.69;-21.59;173.83;0.57;5.81;-3.85
1;-113.78;-59.31;3.49;51.53;29.84;-16.52;-8.48;-204.73;-116.77;9.4;-55.28;30.51;-12.54;-26.01;21.2;63.32;4.47;10.13;-196.93;-23.21;82.26;-2.17;0.3;-0.88
1;93.51;65.2;6.45;197.48;77.53;-13.26;-11.92;-194.51;-113.35;5.53;347.58;17.4;-8.52;143.14;-0.21;178.44;4.62;7.33;-388.04;-25.74;330.89;1.42;6.41;-4.89
1;-108.59;-54.87;3.04;57.98;28.33;-13.14;-8.04;-230.08;-105.51;8.1;-44.21;29.84;-12.98;-27.67;27.21;57.2;4.19;9.18;-176.41;-20.67;112.61;-5.46;-0.08;-0.31
1;100.96;51.38;5.98;192.16;75.96;-12.63;-14.3;-206.23;-110.71;5.75;363.63;18.8;-8.46;149.29;-12.11;144.33;5.12;7.53;-296.7;-20.62;237.23;1.87;6.8;-4.21
1;-104.67;-57.62;2.4;53.73;32.45;-12.3;-9.19;-214.96;-128.32;7.96;-40.33;32.02;-12.86;-18.75;28.65;81.09;4.42;10.13;-203.85;-19.44;185.39;-7.68;-0.05;-0.38
1;93.84;52.39;5.52;199.24;83.44;-12.17;-12.75;-199.78;-120.02;2.7;364.91;14.8;-9.08;164.05;-21.67;138.45;4.71;6.83;-298.33;-20.98;227.88;0.01;6.47;-4.33
1;-109.62;-67.42;2.43;39.94;22.89;-10.58;-8.41;-174.27;-121.11;6.89;-53.2;28.99;-12.98;-46.28;28.09;62.83;4.51;8.96;-174.12;-17.56;109.49;-6.47;0.63;-0.34
1;86.72;49.17;5.41;176.41;77.13;-8.02;-13.56;-185.69;-137.06;5.08;336.82;20.23;-8.79;155.21;-8.21;118.59;4.65;6.75;-280.77;-22.58;213.62;-0.51;6.89;-4.27
1;-102.22;-55.03;3.36;57.91;32.13;-13.01;-6.27;-219.55;-125.05;9.7;-38.44;26.73;-13.37;-23.39;35.11;45.12;4.72;9;-132.01;-21.88;75.96;-5.05;-0.53;0.05
1;115.21;53.93;6.04;194.47;75.61;-11.82;-13.51;-202.46;-120.21;10.28;369.74;16.39;-8.28;145.7;-2.51;141.7;4.67;6.47;-328.95;-20.25;249.62;1.28;7.03;-4.44
1;-113.48;-57.91;3.28;49.92;30.14;-12.54;-8.76;-193.15;-116.01;9.21;-56.84;35.86;-12.85;-29.13;18.25;87.31;4.69;10.67;-282.47;-18.25;130.36;-1.08;0.66;-0.62
1;100;61.79;6.09;193.87;75.62;-9.67;-12.73;-179.74;-110.35;5.73;375.57;16.36;-8.74;152.97;1.89;103.24;3.95;6.31;-240.13;-21.87;153;0.53;6.48;-4.14
1;-120.67;-55.11;3.22;48.85;30.6;-14.39;-8.63;-204.15;-110.16;7.32;-56.44;30.92;-13.73;44.71;17.65;77.7;4;10.01;-245.17;-20.18;133.11;-6.6;-1.04;-0.27
1;118.83;54.67;4.91;186.67;64.11;-5.85;-13.2;-221.29;-134.35;6.45;361.74;15.95;-7.95;111.92;-0.3;121.51;4.06;5.1;-285.94;-19.37;184.95;-0.3;7.46;-3.98
1;-117.87;-58.51;4.08;45.89;25.83;-18.63;-11.01;-187.21;-111.65;8.52;-61.61;38.96;-12.78;-37.7;15.81;81.35;4.53;11.16;-283.18;-20.75;115.75;0.18;0.69;-0.75
1;88.73;52.1;4.53;181.83;75.82;-7.9;-12.54;-273.04;-163.08;3.97;317.7;14.15;-8.75;136.27;-11.74;81.84;3.95;5.7;-220.93;-19.91;149.41;-3.21;6.82;-4.01
1;-102.02;-55.81;4.05;45.54;28.37;-15.78;-13.99;-198.29;-116.28;7.84;-62.21;35.82;-12.28;-28.56;19.18;63.42;4.81;10.46;-222.87;-20.1;79.86;-0.43;0.7;-0.93
1;116.45;57.55;6.53;195.54;80.18;-7.68;-9.34;-199.5;-127.92;4.31;354.72;14.34;-8.76;134.08;1.93;117.44;3.16;5.03;-263.83;-26.11;167.24;0.17;7.79;-4.44
1;-114.04;-59.91;3.63;43.13;24.67;-18.65;-8.63;-187.24;-115.16;8.27;-62.44;33.36;-12.89;-37.59;10.42;68.87;4.55;10.17;-241.29;-18.95;90.3;-1.99;0.65;-0.59
1;101.7;56.03;5.4;189.44;71.8;-9.29;-12.05;-204.41;-129.95;4.07;347.44;12.22;-8.88;119.75;7.63;77.84;3.27;4.84;-206.05;-20.07;120.81;-0.96;6;-3.83
1;-113.84;-57.45;3.52;47.47;26.03;-16.48;-7.81;-191.78;-115.7;8.51;-58.06;35.54;-12.84;-32.57;19.88;78.61;4.3;10.36;-266.64;-18.82;135.95;-1.71;0.26;-0.46
1;90.79;51.13;5.35;195.13;79.53;-9.49;-10.75;-241.14;-144.31;7.14;353.31;12.23;-8.82;136.3;-3.56;80.56;3.69;5.54;-211.29;-20.09;107.25;-0.92;6.33;-3.69
1;-108.48;-50.51;3.54;41.95;28.59;-17.11;-11.99;-176.92;-118.55;5.37;-60.48;36.64;-12.21;-20.39;14.36;76.9;4.37;10.61;-268.95;-17.46;94.43;-0.36;0.94;-1.3
1;94.02;54.94;4.31;167.3;78.15;-7.04;-9.78;-204.52;-124.02;1.06;305.22;14.88;-8.97;153.24;-11.66;80.72;3.43;4.86;-184.35;-19.39;141.6;-3.04;7.45;-4.24
1;-107.47;-49.66;2.56;52.25;28.72;-14.7;-6.79;-204.05;-119.64;8.01;-42.35;32.46;-12.91;1.34;29.63;55.66;4.37;9.95;-159.37;-16.54;108.46;-7.11;-0.89;-0.01
1;113.04;51.35;4.8;175.66;76.56;-8.24;-14.16;-188.89;-133.43;7.22;345.84;15.42;-8.28;131.72;-6.87;78.85;4.02;4.36;-202.52;-20.81;121.22;-2.05;7.74;-4.26
1;-113.63;-56.02;4.14;47.06;26.17;-19.49;-8.08;-190.18;-115.51;6.94;-54.69;36.47;-12.97;-22.91;17.1;70.81;4.11;10.61;-253.58;-21.48;74.75;-0.54;0.34;-0.81
1;97.05;59.92;4.15;187.18;76.39;-8.08;-12.84;-224.41;-133.8;1.32;344.68;13.67;-8.53;139.76;-6.41;76.65;3.3;4.7;-225.32;-16.32;109.37;-2.16;6.61;-3.91
1;-106.64;-50.93;1.94;42.19;26.27;-10.02;-8.12;-165.82;-122.45;4.81;-52.66;32.37;-12.53;-12.68;18.13;50.29;3.44;8.75;-166.29;-14.95;85;-6.37;0.59;-0.42
1;97.81;41.11;5.37;181.85;71.8;-15;-9.86;-182.3;-127.29;4.54;345.18;14.37;-9.21;140.68;-2.1;47.2;3.43;5.7;-99.12;-25.39;85.18;-3.63;6.72;-3.45
1;-111.96;-49.64;4.42;43.25;21.39;-20.86;-10.16;-182.68;-119.57;7.44;-58.14;38.52;-12.54;-20.83;17.32;62.68;4.17;10.36;-214.97;-24.16;80.74;0.26;0.94;-0.4
1;92.45;47.81;4.21;171.41;70.42;-8.06;-11.3;-194.45;-123.11;0.64;318.72;11.08;-8.67;128.15;-9.38;71.4;3.15;4.1;-159.09;-20.94;86.58;-2.7;6.45;-3.27
1;-102.2;-50.1;2.28;45.43;27.81;-9.59;-7.54;-185.5;-121.09;6.36;-47.98;28.46;-12.89;-24.22;25.86;45.39;3.87;8.41;-132.35;-16.37;98.33;-6.98;0.44;-0.33
1;96.95;46.02;4.08;174.2;67.77;-8.02;-11.2;-170.23;-120.39;1.49;328.25;15.2;-8.86;132.35;-10.39;93.06;3.03;5.34;-252.89;-20.76;154.35;-4.19;7.01;-3.91
1;-116.27;-55.77;3.33;48.81;25.28;-10.28;-7.86;-200.87;-118.94;5.76;-59.48;29.48;-13.25;-26.67;19.5;45.27;3.76;8.86;-107.22;-19.94;93.3;-5.47;0.19;-0.11
1;112.13;56.26;3.67;179.46;75.75;-9.81;-12.78;-228.97;-126.38;3.25;332.58;13.52;-8.57;153.84;-10.06;85.61;3.24;4.53;-202.29;-16.85;173.07;-1.74;6.79;-3.92
1;-110.96;-54.28;3.53;45.58;28.61;-11.15;-8.93;-206.27;-122.9;6.12;-65.9;29.04;-12.43;-29.89;6.56;39.71;4.18;8.57;-113.7;-18.85;48.05;-1.38;1.77;-0.58
1;87.77;56.86;5.32;182.79;81.32;-11.05;-13.24;-204.8;-134.43;1.09;333.59;16.21;-8.26;164.01;0.21;109.73;3.96;6.66;-285.47;-19.32;177.41;-1.07;7.6;-5.17
1;-105.09;-55.06;2.5;31.61;24.89;-12.41;-7.81;-170.01;-122.91;6.05;-67.8;30.67;-12.35;-28.69;13.67;42.18;3.58;8.81;-130.37;-18.07;71.43;-6.77;1.16;-0.42
1;92.18;42.66;5.1;185.56;76.37;-8.39;-14.93;-234.14;-147.41;0.11;319.47;24.42;-7.84;138.02;-1.65;113.57;4.37;6.5;-239.88;-21.63;182.96;-1.53;8.61;-4.92
1;-88.77;-38.95;2.46;50;27.66;-12.04;-8.08;-187.72;-97.35;6.72;-42.68;19.34;-12.56;-16.32;25.33;37.46;4.46;8.02;-121.29;-17.38;75.96;-7.3;0.5;0.06
1;98.34;41.56;6.02;216.24;78.59;-11.66;-9.96;-257.96;-136.8;6.76;379.26;13.89;-9.71;138.89;-1.33;88.73;3.34;6.07;-210.48;-22.49;147.05;-2.85;6.95;-3.55
1;-104.18;-43.3;3.73;54.34;32.6;-11.79;-8.76;-200.92;-117.05;4.96;-43.6;36.24;-11.68;-16.47;13.13;61.31;4.26;10.24;-192.61;-19.28;103.7;0.5;1.71;-1
1;93.82;50.79;5.46;207.44;80;-11.84;-13.82;-219.44;-144.58;1.54;373.96;17.44;-9.21;154.87;-4.88;106.57;3.24;7;-256.25;-22.36;181.64;-3.05;6.78;-4.22
1;-115.05;-50.12;3.81;57.87;29.95;-17.47;-7.58;-214.89;-126.49;7.15;-42.19;36.83;-12.74;-18.94;14.45;61.6;4.48;11.26;-220.89;-24.97;102.62;-3.58;-0.32;-0.3
1;109.49;58.74;5.24;205.81;80.16;-9.49;-11.79;-248.31;-161.64;1.38;366.35;14.4;-8.41;161.37;-11.5;108.3;3.8;5.83;-242.98;-19.37;177.35;-0.82;7.74;-4.78
1;-104.33;-55.11;2.4;38.95;32.85;-9.83;-10.73;-191.04;-148.81;5.61;-59.18;33.36;-11.99;-29.76;18.56;47.91;4.33;9.59;-150.77;-17.06;101.21;-5.58;1.32;-1.26
1;106.48;57.07;6.24;202.68;85.62;-10.45;-11.3;-187.47;-126.59;2.74;382.46;16.79;-9.25;172.45;0.39;101.34;3.09;6;-226.75;-23.77;151.36;-2.08;7.05;-4.4
1;-117.02;-55.62;4.21;52.76;27.73;-13.56;-12.33;-208.59;-121.17;6.32;-51.72;32.96;-12.84;-21.96;21.85;56.19;4.34;9.85;-143.5;-26.9;115.58;-3.95;0.55;-0.57
1;106.81;51.84;5.03;206.96;74.66;-10.93;-11.75;-253.28;-155.29;1.12;371.13;15.13;-8.89;133.58;-9.78;104.85;3.45;5.89;-237.31;-19.92;169.24;-2.53;6.57;-4.22
1;-108.66;-57.26;2.92;53.25;29.69;-11.77;-10.7;-191.31;-128.7;6.17;-44.46;35.63;-12.33;-30.56;16.98;63.73;4.06;9.96;-211.16;-18.61;125.64;-6.42;0.63;-0.57
1;110.96;50.66;6.11;216.02;82.63;-12.15;-10.88;-244.92;-140.67;3.64;380.25;17.1;-9.28;160.93;-5.3;100.5;3.47;6.12;-233.39;-21.94;167.84;-0.14;6.49;-3.76
1;-114.2;-53.66;2.64;58.47;36.21;-12.47;-10.95;-219.72;-130.05;6.07;-49.1;35.77;-12.61;-20.05;18.35;69.14;4.64;10.83;-184.06;-19.54;171.06;-5.36;0.49;-0.87
1;108.03;51.23;5.92;212.19;84.12;-11.8;-11.75;-219.51;-137;7.66;378.49;16.37;-8.83;148.22;4.01;107.7;4.12;6.52;-247.7;-20.59;192.05;-0.11;6.52;-3.83
1;-119.58;-56.96;3.69;75.15;42.95;-16.23;-10.15;-257.65;-126.49;8.45;-28.19;37.88;-12.83;-11.01;11.09;81.9;5.42;12.4;-261.86;-21.76;159.1;-2.56;-0.13;-1
1;104.54;42.41;6.27;213.46;80.74;-10.11;-12.08;-228.43;-139.14;1.81;376.26;15.82;-8.17;133.09;-11.48;133.88;3.64;5.8;-265.86;-23.01;290.54;1.32;6.36;-4.36
1;-115.89;-58.47;3.59;63.17;36.12;-18.46;-8.99;-236.97;-143.33;7.94;-44.73;34.46;-13.1;-22.71;22.89;61.06;4.74;11.65;-133.56;-20.93;124.9;-2.81;0.48;-0.83
1;120.03;54.64;6.7;207.88;76.9;-10.58;-12.26;-196.34;-118.59;0.39;381.17;13.14;-8.5;137.1;-5.12;134.6;3.19;5.15;-307.03;-23.53;218.49;1.57;6.91;-4.31
1;-119.04;-63.56;3.52;60.76;37.14;-13.45;-11.04;-233.88;-138.08;6.84;-48.85;36.33;-13.47;-25.62;26.86;76.83;4.91;12.01;-169.14;-21.37;174.86;-6.04;0.15;-1.03
1;113.57;61.27;6.38;212.49;83.23;-13.24;-13.83;-220.56;-121.81;2.23;379.75;18.16;-8.98;165.97;-10.42;125.75;4.32;7.02;-286.39;-23.58;220.02;1.61;6.86;-4.34
1;-117.68;-61.23;2.73;58.06;33.56;-11.81;-11.92;-226.83;-125.82;6.12;-47.37;35.87;-12.77;-27.3;20.82;71.72;4.54;11.3;-183.14;-18.72;193.51;-5.57;-0.18;-0.75
1;105.91;52.82;5.54;202.64;81.91;-12.08;-10.94;-212.62;-124.26;2.47;358.5;15.05;-9.16;148.17;-10.44;105.02;3.69;6.51;-242.25;-21.75;208.21;-0.86;7;-3.97
1;-115.42;-58.12;2.53;55.68;32.4;-14.32;-9.96;-211.04;-119.31;6.35;-46.66;36.81;-12.79;-27.07;24.39;59.17;4.06;10.8;-151.1;-20.87;135.68;-6.35;-0.26;-0.79
1;112.01;61.44;6.12;209.24;81.15;-12.53;-9.04;-187;-109.1;1.47;383.05;14.23;-8.55;156.47;-4.79;86.29;2.8;5.58;-194.66;-22.54;125.16;0.37;7.29;-4
1;-115.77;-56.17;2.69;59.61;34.03;-12.02;-9.29;-227.21;-128.11;7.04;-42.82;27.54;-13.02;-19.89;22.99;60.59;4.25;9.33;-129.67;-19.8;118.49;-8.39;0.08;-0.77
1;109.02;59.62;5.94;213;83.26;-12.26;-11.14;-215.66;-125.63;0.13;386.78;15.32;-8.64;163.53;-15.1;103.99;3.21;6.5;-261.28;-22.73;148.89;0.39;6.96;-4.16
1;-119.04;-62.91;3.87;67.74;35.29;-15.67;-10.33;-248.06;-120.73;8.63;-39.01;36.14;-13.47;-24.53;24.25;65.07;4.34;11.55;-177.56;-25.09;135.97;-4.32;-0.68;-0.59
1;118.11;55.33;6.2;214.35;87.11;-12.48;-12.21;-223.99;-130.21;4.92;386.93;16.47;-8.56;171.28;-12.95;123.02;4.18;6.18;-250.09;-24.71;184.21;1.41;6.78;-3.88
1;-114.68;-60.64;3.38;71.09;37.46;-16.18;-12.79;-262.16;-126.43;9.72;-34.84;37.34;-12.85;-20.18;22.49;71.76;5.2;11.42;-195.98;-25.45;160.34;-5.99;-0.23;-0.65
1;105.99;53.25;6.76;209.78;82.65;-13.38;-14.03;-242.19;-108.22;3.05;382.29;16.84;-8.53;152.55;-2.64;141.74;4.34;7.13;-294.45;-27.69;246.08;0.64;6.57;-4.33
1;-119.24;-58.16;4.11;69.07;39.02;-13.58;-10.52;-247.5;-143.77;7.18;-37.95;37.12;-13.73;-16.89;24.36;81.46;4.6;11.19;-211.77;-27.04;185.45;-6.33;0.33;-1.24
1;109.12;55.59;6.42;208.02;88.36;-11.12;-12.64;-223.25;-121.98;2.11;384.29;17.75;-8.08;184.88;-11.67;118.35;3.89;6.46;-256.83;-26.98;169.55;1.49;6.9;-4.14
1;-112.92;-57.18;3.02;67.51;38.62;-15.87;-13.67;-239.93;-139.05;7.48;-29.15;35.64;-13.24;-16.24;28.16;75.33;5.02;11.56;-182.43;-20.44;168.35;-8.18;0.22;-0.95
1;105.14;62.36;6.29;212.04;95.01;-13.37;-12.69;-221.04;-134.17;1.53;382.91;16.06;-8.7;201.26;-20.7;97.66;3.79;6.73;-217;-21.7;124.67;0.89;6.43;-4.37
1;-111.62;-62.39;2.95;70.87;41.46;-14.1;-14.49;-248.73;-151.81;8.45;-29.55;36.05;-13.2;-18.78;28.24;67.73;5.17;11.11;-158.91;-23.47;147.32;-7.86;0.13;-1.1
1;104.83;54.89;6.34;214.59;89.13;-10.34;-12.64;-229.41;-152.76;5.61;381.83;15.73;-8.72;163.31;-9.64;112.69;4.41;6.54;-247.69;-24.88;186.73;1;6.7;-4.53
1;-106.99;-60.01;2.43;56.37;33.41;-15.36;-12.77;-201.73;-125.79;6.16;-39.48;38.73;-12.08;-31.42;20.09;67.28;4.54;10.59;-219.11;-16.44;136.16;-4.3;0.85;-1.07
1;104.59;42.57;6.17;210.82;80.04;-12.29;-10.5;-204.54;-131.13;4.92;383.62;14.11;-9.45;150.28;-0.65;101.84;3.69;6.42;-228.57;-20.83;178.54;0.14;6.24;-3.7
1;-118.42;-57.96;3.24;64.39;35.38;-16.14;-13.02;-240.23;-122.68;6.27;-44.34;38.54;-13.14;-14.58;28.89;74.05;4.6;11.66;-214.06;-23.34;183.07;-6.23;0.12;-1.24
1;116.62;63.51;5.42;202.71;76.59;-15.22;-11.67;-197.08;-106.59;1.21;373.5;14.64;-8.66;142.35;-10.11;116.71;3.59;6.27;-266.53;-24.42;178.68;-0.44;6.93;-4.43
1;-114.97;-52.71;2.56;62.6;31.81;-12.18;-8.64;-237.39;-106.36;6.91;-42.73;32.11;-12.82;-17.04;20.67;57.55;4.1;9.72;-167.74;-20.09;135.9;-8.36;-0.39;-0.1
1;107.46;56.84;5.67;203.52;86.14;-8.93;-13.46;-224.09;-116.3;2.59;371.94;14.93;-8.85;138.11;-3.04;69.13;3.75;5.79;-169.23;-19.78;131.34;-0.17;6.89;-4.18
1;-119.05;-57.07;3.95;62.75;29.01;-12.62;-9.44;-231.78;-112.27;6.28;-47.25;28.58;-13.51;-23.3;29.73;61.64;3.97;9.33;-167.25;-22.54;122.01;-6.24;-0.25;-0.41
1;116.92;65.52;5.94;213.67;78.73;-13.67;-14.04;-202.85;-127.61;3.67;399.25;12.67;-8.11;137.69;-8.78;76.02;3.54;5.88;-209.71;-22.18;100.16;0.23;6.5;-4.76
1;-122.23;-62.65;3.67;63.35;32.48;-13.23;-10.25;-255.91;-128.58;7.43;-53.59;38.02;-13.34;-29.83;25.46;78.46;4.47;11.08;-240.83;-23.28;134.21;-4.83;0.21;-0.62
1;104.57;51.03;6.48;206.83;72.36;-14.84;-14.26;-230.2;-132.46;1.47;367.78;19.5;-7.6;118.65;-8.5;158.5;4.74;8.23;-343.88;-24.74;247.06;1.68;8.18;-5.27
1;-117.18;-48.43;2.61;65.38;32.04;-12.15;-7.63;-252.09;-116.51;7.87;-43.14;29.4;-13.25;-14.11;32.45;59.44;4.57;9.35;-153.52;-23.09;145.19;-9.64;-0.9;-0.4
1;120.19;59.81;7.71;217.68;73;-15.98;-13.13;-215.84;-112.55;2.89;408.99;19.45;-8.09;134.12;-3.85;138.84;4.14;7.67;-284.11;-25.36;187.47;3.46;7.49;-4.89
1;-119.69;-52.97;3.72;65.67;34.84;-16.32;-9.68;-244.02;-118.69;7.8;-37.83;38.42;-13.25;-14.16;20.01;87.29;4.37;11.06;-291.68;-21.69;178.26;-3.07;-0.48;-0.57
1;123.96;56.94;6.18;212.97;69.4;-16.58;-13.19;-205.72;-113.32;0.75;392.02;16.16;-8.29;119.18;-6.23;105.97;3.36;6.82;-250.16;-23.89;177.34;0.14;6.83;-4.11
1;-123.6;-55.89;4.23;73.62;39.37;-13.2;-8.98;-277.6;-126.78;9.26;-46.8;36.51;-13.63;-6.3;26.19;65.77;4.64;11.21;-175.15;-24.88;158.3;-4.54;-0.97;-0.18
1;125.29;66.79;7.11;219.55;85.1;-13.33;-16.38;-249.7;-121.11;1.71;391.28;16.35;-8.46;146.12;-3.42;103.9;4.28;7.19;-268.25;-26.02;161.42;1.41;6.9;-4.66
1;-120.05;-57.58;4.32;69.95;35.99;-14.12;-11.81;-258.71;-130.17;9.02;-42.48;37.16;-13.64;-12.96;23.02;82.38;4.79;10.65;-276.25;-26.01;185.57;-4.78;-0.7;-0.4
1;124.53;62.68;6.81;221.26;76.9;-16.28;-14.61;-224.98;-126.96;-0.41;405.16;16.18;-8.15;130.21;-5.22;108.12;3.7;6.67;-256.93;-25.75;138.81;1.45;6.74;-4.61
1;-121.75;-63.22;3.83;69.91;36.94;-16.07;-12.33;-257.71;-126.42;8.42;-45.25;39.92;-13.47;-19.12;23.75;96.18;4.89;11.69;-333.52;-23.2;208.84;-4.02;-0.73;-0.56
1;121.41;57.55;7.15;219.51;72.67;-16.04;-14.39;-233.08;-124.83;0.49;392.87;16.55;-8.4;118.54;-2.18;94.52;3.57;7.71;-257.93;-24.01;124.19;2.44;6.21;-4
1;-123.48;-55.72;4.22;68.73;35;-14.36;-10.48;-250.18;-116.43;6.01;-47.01;40.06;-13.36;-16.57;26.25;86.16;4.25;11.07;-318.78;-23.68;144.17;-1.15;-0.33;-0.7
1;117.28;50.07;7.04;218.17;69.17;-16.96;-13.34;-223.76;-125.32;1.27;395.46;14.61;-8.58;117.52;-8.08;97;3.29;7.02;-255.17;-24.06;133.84;1.18;6.12;-3.68
1;-123.75;-53.42;4.18;72.18;38.6;-13.8;-6.72;-264.33;-121.67;8.52;-41.78;38.26;-13.15;-9.93;26.16;72.98;4.16;10.54;-266.62;-24.43;117.48;0.07;-0.58;-0.49
1;114.53;55.13;7.24;220.91;72.78;-16.83;-13.96;-229.86;-129.02;6.53;400.36;19.12;-8.41;115.15;-6.06;81.18;3.58;7.37;-242.4;-24.76;96.83;1.33;6.69;-3.88
1;-127.55;-54.41;4;63.12;34.02;-15.09;-7.71;-242.84;-111.42;6.62;-54.06;37.9;-13.44;-19.38;25.14;77.02;4.15;11.43;-259.75;-23.86;144.18;-3.13;-0.2;-0.66
1;131.66;57.85;6.53;213.67;73.26;-16.27;-10.9;-200.99;-132.17;-0.13;402.53;14.27;-8.33;126.87;-15.58;86.65;3.07;5.85;-221.32;-22.93;99.55;0.95;6.7;-3.68
1;-121.31;-57.54;4.54;69.84;34.26;-14.13;-9.88;-254.59;-125.04;8.34;-45.5;39.8;-13.37;-21.37;27.73;82.09;4.19;11.16;-300.95;-26.95;137.14;-1.89;-0.39;-0.75
1;120.5;56.33;7.63;229.53;71.77;-16.26;-12.05;-226.97;-129.63;4.02;419.06;18.36;-8.1;126.03;-2.54;97.55;2.96;7.49;-225.73;-26.97;138.08;3.02;6.69;-3.91
1;-124.06;-51.97;4.33;70.33;34.86;-15.62;-9.61;-256.38;-109.34;9.33;-46.95;42.17;-13.18;-14.26;20.58;86.34;4.41;11.62;-312.96;-25.16;158.64;-0.95;-0.43;-0.41
1;125.18;57.2;7.48;226.34;72.86;-15.51;-9.95;-235.57;-111.55;1.86;416.32;17.59;-8.42;135.9;-12.47;119.61;2.9;7.38;-250.46;-25.42;203.47;3.04;6.46;-3.83
1;-122.09;-54.6;4.08;67.51;39.71;-13.59;-11.67;-253.63;-141.14;6.61;-40.95;39.1;-13.18;-5.14;28.9;84.63;4.79;10.61;-265.2;-26.09;208.26;-3.87;-0.04;-0.77
1;120.19;57.75;7.18;211.82;69.12;-17.42;-11.87;-224.29;-119.88;2.1;381.41;16.09;-8.63;125.32;-6.27;99.7;3.28;7.24;-258.53;-26.91;142.19;1.38;6.57;-3.92
1;-124.83;-58.36;3.78;60.25;34.82;-16.05;-7.95;-241.93;-118.53;7.5;-59.06;34.29;-13.3;-19.54;28.53;77.53;3.99;10.24;-243.7;-25.48;162.56;-2.88;-0.18;-0.89
1;110.44;56.37;7.79;222.09;76.94;-18.61;-10.82;-221.88;-137.44;6.87;400.92;14.45;-8.69;134.15;-7.11;107.22;3.58;7.51;-242.84;-25.52;154.56;2.34;6.37;-3.82
1;-118.75;-49.28;4.22;73.19;37.84;-13.21;-8.97;-268.59;-122.89;7.16;-40.89;37.06;-12.68;-15.77;28.13;71.04;4.04;10.36;-265.56;-26.5;82.91;-1.19;-0.41;-0.58
1;122;49.46;8.21;229.76;67.12;-18.02;-12.63;-252.57;-108.4;3.21;407.16;16.21;-8.8;126.5;-0.54;121.17;3.61;8.33;-292.93;-28.55;217.9;3.41;6.83;-3.85
1;-128.71;-53.46;4.7;68.14;34.08;-16.53;-9.52;-263.32;-115.28;7.19;-49.46;35.08;-14.08;-10.51;25.3;84.61;4.26;10.58;-299.01;-27.04;169.79;-4.05;-1.47;-0.6
1;124.55;64.39;7.7;232.37;77.18;-17.63;-12.55;-235.75;-136.31;2.74;422.22;18.03;-7.9;135.13;-12.64;107.8;3.36;7.62;-260.34;-25.44;145.49;2.56;6.66;-4.07
1;-121.91;-56.4;4.07;71.98;37.97;-15.12;-10.59;-264.07;-119.43;8.5;-40.91;39.64;-13.22;-15.54;26.01;93.32;4.57;11.18;-321.37;-24.51;182.37;-1.6;-0.51;-0.59
1;118.57;48.34;8.01;223.93;68.83;-19.37;-13.41;-242.87;-125.28;5.71;397.96;17.13;-8.64;120.64;-2.15;116.35;3.44;7.8;-299.91;-25.86;160.65;2.82;5.93;-3.57
1;-123.77;-48.51;5.72;75.35;39;-15.47;-10.07;-259.48;-124.36;7.01;-45.68;38.61;-12.96;-9.87;29.3;69.56;4.36;11.21;-262.18;-27.05;85.26;4.8;0.17;-1.07
1;90.31;43.07;7.53;209.29;89.03;-16.89;-12.5;-222.02;-156.51;3.8;373.1;26.76;-9.4;134.8;-25.26;99.14;3.67;7.67;-232.59;-26.38;138.2;3.18;6.48;-3.28
1;-116.63;-45.7;3.52;69.05;26.51;-15.34;-10.54;-244.2;-103.39;6.93;-42.49;25.4;-12.72;-16.84;45.03;37.79;4.39;8.59;-55.65;-20.22;119.72;-1.38;-1.74;-0.14
1;131.38;55.21;5.95;204.33;66.63;-13.39;-13.6;-193.48;-123.15;0.28;386.94;13.53;-8.48;108.75;-21.44;79.49;3.3;4.69;-166.66;-18.9;106.57;-0.06;6.84;-3.62
1;-121.79;-66.69;3.58;61.15;33.37;-14.02;-11.47;-239.11;-137.36;6.79;-51.04;39.17;-13.2;-29.99;18.31;91.35;4.56;11.22;-287.5;-20.48;180.06;-2.75;0.35;-0.77
1;113.13;61.28;7.12;215.01;79.21;-12.54;-13.2;-225.89;-120.45;0.08;398.01;12.78;-8.12;126.52;1.25;93.26;3.15;6.03;-235.62;-21.1;114.1;2.01;6.57;-4.34
1;-129.34;-65.31;4.84;66.13;34.97;-14.51;-9.06;-251.23;-140.96;7.49;-52.64;35.24;-14.2;-23.55;23.6;80.35;4.82;10.7;-276.84;-24.43;179.34;-2.67;-1.01;-0.54
1;118.19;54.45;5.88;213.73;77.36;-14.41;-13.74;-204.31;-135.08;4.86;401.26;17.86;-7.52;122.31;-0.19;105.48;3.34;6;-254.62;-21.44;136.65;1.61;6.07;-3.68
1;-106.09;-56.94;5.52;67.2;43.29;-14.1;-15.43;-279.78;-161.27;6.62;-37.73;28.32;-12.2;-9.42;15.68;81.51;5.13;10.23;-278.13;-20.35;90.02;8.78;2.12;-1.75
1;104.62;47.93;6.53;202.94;74.25;-11.57;-8.96;-196.49;-122.15;3.25;369.15;13.34;-9.32;121.6;-0.7;80.47;2.81;5.63;-179.73;-21.58;137.21;-0.49;6.01;-3.29
1;-121.3;-51.28;4.13;62.91;36.41;-14.29;-7.76;-242.48;-127.46;5.23;-53.33;37.2;-13.15;-11.83;33.5;79.12;3.8;11.09;-266.95;-20.63;143.81;0.13;-0.06;-1.5
1;115.9;61.23;5.81;209.13;69.86;-12.12;-9.23;-217.24;-103.11;0.9;397.06;16.25;-8.33;124.48;-7.11;94.12;2.52;6.05;-213.26;-20.4;104.77;0.61;6.84;-3.63
1;-123.17;-57.33;4.45;67.66;34.94;-15.92;-9.15;-256.71;-125.82;7.11;-48.14;36.78;-13.63;-15.47;22.14;80.13;4.34;10.94;-277.04;-24.08;138;-3.55;-0.5;-0.5
1;112.29;55.42;5.86;213.23;82.65;-13.23;-12.6;-236.95;-112.43;4.86;389.62;14.2;-8.83;147.39;1.47;89.42;3.49;6.28;-223.39;-21.58;132.1;0.18;6.17;-3.34
1;-127.25;-59.11;3.84;63.8;33.26;-14.44;-14.31;-249.53;-133.71;8.4;-53.28;36.04;-13.63;-21.15;19.9;96.96;4.9;11.21;-301.9;-20.91;199.67;-3.06;-0.54;-0.85
1;109.47;54.48;6.41;209.21;76.91;-13.7;-12.55;-217.56;-121.55;9.84;394.02;14.41;-8.3;120.09;-4.57;86.41;4.1;6.13;-219.85;-19.91;99.22;2.12;6.62;-3.54
1;-124.32;-60.5;3.96;59.22;36.26;-17.12;-9.25;-234.34;-136.79;9.64;-52.74;35.07;-12.91;-14.09;18.63;77.99;4.63;11.49;-263.17;-17.98;142.56;0.67;0.38;-1.15
1;113.16;46.31;6.66;210.82;76.48;-11.65;-10.24;-200.92;-142.48;3.21;392.17;16.82;-8.73;116.79;-16.97;145.83;4.23;6.72;-247.51;-19.66;230.89;1.87;6.67;-3.99
1;-117.84;-66.88;4;67.48;38.78;-16.58;-8.11;-250.85;-138.68;8.74;-42.78;37.13;-13.08;-26.66;20.87;61.36;4.52;10.75;-221.65;-22.95;116.05;-1.27;0.45;-0.75
1;115.43;57.71;7.34;216.33;88.67;-14.16;-14.51;-219.3;-144.59;9.27;407.35;18.55;-8.39;145.33;8.03;102.98;4.66;7.34;-215.37;-23.62;146.13;3.04;7.15;-4.32
1;-118.37;-63.06;3.92;62.55;35.63;-13.6;-7.4;-238.47;-127.2;8.15;-46.95;37.47;-13.31;-24.53;24.72;72.45;4.63;10.73;-244.38;-19.55;104.93;-0.45;0.19;-0.55
1;108.65;61.67;7.61;209.72;81.09;-13.63;-13.74;-216.92;-121.86;3.17;401.64;17.08;-7.63;153.8;13.03;121.71;4.61;6.96;-228.37;-21.27;173.5;4.41;6.94;-4.67
1;-126.98;-55.47;4.48;73.98;33.52;-25.83;-6.94;-268.93;-106.76;8.48;-40.09;40.07;-13.84;-12.3;13.66;93.16;4.37;12.03;-345.71;-23.18;131.54;-2.94;-1.67;-0.07
1;125.48;59.26;7.53;208.88;73.55;-16.57;-15.71;-212.81;-118.65;6.19;395.02;18.62;-7.67;130.45;5.04;135.42;4.21;6.92;-308.83;-21.04;177.28;5.28;6.81;-4.27
1;-125.05;-54.81;3.77;65.39;32.63;-17.07;-11.18;-258.95;-113.51;10.27;-54.06;38.41;-13.46;-15.92;23.04;94.35;4.64;10.8;-319.07;-24.38;193.19;-5.05;-1.16;-0.47
1;117.17;56.08;7.58;213.9;76.45;-17.9;-13.37;-224.34;-120.47;9.56;398.21;16.07;-8.26;146.08;-3.01;131.34;4.7;7.72;-278.18;-23.76;194.34;4.53;5.93;-3.7
1;-121.87;-53.76;3.22;64.22;31.8;-17.92;-9.56;-244.79;-114.54;7.83;-46.24;37.43;-12.59;-21.28;12.47;91.72;4.53;10.99;-327.68;-19.93;153.35;-2.07;-0.54;-0.46
1;115.59;53.1;7.31;213.34;69.28;-11.56;-13.64;-225.95;-123.73;1.64;386.49;13.57;-9.21;108.92;2.29;80.67;3.67;5.67;-197.5;-21.2;125.16;1.7;6.4;-3.7
1;-127.97;-58.26;4.56;68.2;34.64;-16.34;-7.49;-263.91;-130.6;7.45;-46.72;36.82;-13.36;-21.97;24.53;67.47;4.33;10.97;-242.64;-22.64;114.49;-0.22;-0.96;0.15
1;116.75;59.79;6.99;209.93;76.82;-16.68;-13.92;-224.52;-110.62;4.05;394.2;16.5;-8.47;145.3;6.88;101.92;3.7;6.34;-211.64;-21.28;142.4;2.64;6.86;-4.05
1;-123.62;-54.21;3.98;61.74;32.69;-14.39;-11.53;-246.47;-111.6;9.47;-56.42;37.59;-13.43;-19.73;14.7;95.55;4.59;10.84;-332.9;-26.17;189.01;-4.81;-0.95;-0.43
1;122.44;59.81;7.4;214.19;72.08;-13.83;-11.51;-212.44;-115.2;1.99;406.24;15.23;-8.1;141.86;2.61;116.2;3.14;6.6;-243.4;-24.79;187.68;2.05;6.76;-3.61
1;-123.8;-54.89;3.83;64.77;32.37;-17.33;-13.89;-255.9;-112.28;7.81;-52.27;39.87;-13.23;-19.33;18.1;107.29;4.67;11.49;-383.46;-20.89;200.16;-4.23;-1.04;-0.39
1;113.48;55.94;7.05;217.8;72.33;-12.79;-12.11;-234.66;-113.33;1.1;402.82;16.25;-8.53;137.06;-2.84;98.05;3.8;6.25;-243.64;-21.75;165.01;2.88;6.8;-3.84
1;-120.14;-60.85;3.57;65.05;35.93;-15.62;-11.72;-256.78;-121.55;7.84;-50.11;36.37;-13.42;-17.19;18.71;87.34;4.83;10.62;-306.73;-22.93;164.45;-5.1;-1.16;-0.03
1;122.02;44.71;6.48;218.63;72.6;-13.79;-12.22;-230.78;-122.64;5.27;400.41;16.82;-9.02;123.29;7.38;101.67;3.64;6.81;-216.93;-23.14;197.78;1.14;5.97;-3.24
1;-124.96;-61.24;3.98;66.85;34.28;-14.19;-7.33;-262.84;-120.33;9.56;-52.13;37.7;-13.12;-23.76;15.8;86;4.55;11.39;-294.7;-22.81;109.72;-1.37;-0.73;0
1;112.94;59.69;7.19;214.86;79.77;-14.57;-13.74;-242.67;-116.76;3.6;398.59;14.26;-8.39;147.49;7;97.39;4.22;6.52;-239.38;-22.45;126.97;3.08;6.32;-3.86
1;-123.87;-55.57;3.48;67.91;35.36;-14.15;-13.23;-267.05;-117.69;8.23;-47.65;34.92;-13.39;-17.12;21.65;87.27;4.75;10.56;-302.16;-22.52;181.26;-4.3;-1.39;-0.27
1;119.62;61.25;6.75;204.91;74.98;-12.95;-13.25;-235.78;-113.17;5.72;372.96;16.77;-8.17;146.16;2.8;121.99;5.11;7.13;-261.97;-20.81;209;3.1;6.39;-3.8
1;-125.86;-55.4;3.94;68.62;36.84;-19.88;-9.2;-257.43;-128.51;7.77;-52.49;34.34;-13.13;-12.58;19.49;86.68;4.77;10.73;-338.83;-21.27;105.93;0.82;-1.09;-0.3
1;118.59;63.17;7.02;218.39;69.52;-10.61;-14.04;-229.1;-122.26;-0.97;418.5;13.83;-7.83;134.37;1.27;93.55;3.73;6.1;-224.43;-20.69;166.22;1.54;6.37;-4.09
1;-125.82;-53.26;3.25;68.19;38.5;-17.11;-13.65;-253.65;-123.83;7.17;-44.78;37.09;-13.19;-7.9;19.14;99.78;4.95;11.4;-336.21;-21.4;210.45;-4.92;-1.24;-0.42
1;115.11;57.18;6.79;218.95;71.59;-10.89;-13.13;-229.89;-120.04;0.4;404.69;15.7;-8.22;124.36;5;89.58;3.8;6.62;-236.7;-22.01;110.79;1.16;6.15;-3.56
1;-124.5;-53.17;3.63;64.42;33.5;-13.93;-14.32;-250.4;-120.29;6.75;-47.05;40.01;-13.3;-14.81;19.51;112.82;5.32;11.21;-398.28;-24.33;233.06;-6.76;-1.1;-0.5
1;114.1;60.44;6.74;222.3;80.08;-15.25;-11.67;-217.05;-134.43;12.84;409.63;16.51;-8.77;144.49;-3.63;117.22;4.47;7.17;-237.84;-23.46;144.62;0.98;6.32;-4
1;-118.59;-56.85;4.34;64.07;37.65;-20.02;-11.09;-230.03;-132.59;12.76;-46.84;39.9;-12.45;-13.09;15.28;97.87;4.86;12.05;-367.32;-22;176.26;1.23;0.34;-1.34
1;121.74;57.12;7.03;207.84;74.2;-16.3;-10.43;-198.21;-116.44;2.43;387.9;12.64;-9.23;135.66;2.12;121.97;3.95;6.24;-255.22;-22.96;182.04;1.85;6.37;-3.99
1;-126.04;-59.34;3.13;57.66;34.18;-14.5;-11.54;-240.11;-122.89;7.24;-61.62;35.79;-13.18;-21.35;21.62;94.4;4.79;10.52;-322.12;-19.75;190.97;-3.88;-0.47;-0.54
1;115.65;53.2;7.19;209.19;77.08;-13.81;-12.7;-222.57;-118.26;3.41;398.93;17.24;-8.19;141.84;3.93;125.84;3.59;6.91;-219.2;-19.63;178.34;2.46;5.77;-3.94
1;-125.61;-55.4;3.78;67.57;36.87;-15.35;-12.16;-254.66;-135.28;8.81;-49.38;36.88;-13.27;-11.05;18.07;99.78;5.11;11.34;-326.05;-20.86;227.75;-2.78;-0.96;-0.36
1;117.4;61.49;7.44;203.62;70.72;-12.49;-15.03;-222.55;-119.37;1.29;379.47;12.98;-8.16;135.41;-2.86;123.08;4.01;6.22;-279.23;-20.46;158.77;3.86;5.89;-3.95
1;-121.74;-53.42;3.24;56.28;32.79;-12.34;-11.33;-225.5;-123.26;6.31;-50.79;37.84;-13.08;-16.91;19.98;91.65;4.17;10.16;-334.81;-22.12;177.98;-4.13;-0.59;-0.6
1;102.18;50.59;6.86;208.19;71.19;-14.33;-10.32;-207.77;-126.65;5.55;381.39;13.61;-8.5;125.91;3.84;118.88;3.11;6.47;-274.34;-24.27;160.73;2.06;5.43;-3.47
1;-121.82;-50.48;3.72;59.09;34.82;-12.06;-9.83;-229.52;-123.61;5.2;-52.49;37.83;-12.61;-13.4;21.12;91.09;4.09;11;-318.68;-21.23;129.66;-1.55;0;-0.81
1;111.05;48.85;6.64;207.85;64.87;-12;-10.07;-207.98;-115.22;1.52;374.3;14.5;-8.82;100.51;-6.05;95.42;2.9;5.65;-195.67;-21.66;151.82;0.94;6.28;-3.45
1;-120.57;-59.25;3.76;58.05;32.77;-14.84;-9.55;-226.69;-136.82;6.49;-55.65;34.2;-13.08;-19.88;24.26;79.14;4.11;10.2;-276.76;-21.91;131.57;-2.32;-0.12;-1.09
1;113.96;56;7.42;212.68;73;-13.63;-10.18;-209.18;-115.12;0.34;394.95;13.08;-8.73;133.48;-0.09;101.46;2.63;5.88;-195.08;-23.2;174.83;1.87;5.92;-3.29
1;-124.76;-59.25;3.62;47.54;28.85;-12.1;-9.55;-215.66;-124.62;4.63;-63.39;35.96;-13.18;-31.81;20.7;85.29;4.01;9.99;-301.39;-22.69;163.2;-4.28;0.02;-0.71
1;107.48;60.38;7.06;214.57;75.92;-12.35;-10.48;-219.12;-130.87;1.23;406.2;17.11;-8.23;141.46;7.62;115.66;2.79;6.49;-214.3;-20.11;192.08;2.01;6.27;-3.82
1;-117.24;-57.64;3.25;55.72;32.62;-18.6;-16.13;-221.06;-116.27;8.72;-49.12;40.4;-12.88;-21.23;18.18;113.18;4.92;11.59;-412.66;-19.79;196.82;-2.37;-0.3;-1
1;104.44;45.05;6.92;206.12;73.71;-12.17;-10.12;-209;-125.88;3.3;389.4;13.72;-9.02;113.07;-0.44;100.2;3.01;5.97;-209.57;-21.49;179;0.41;5.74;-3.1
1;-125.26;-54.7;3.69;56.97;31.12;-17.31;-9.07;-223.96;-117.88;6.88;-55.94;40.54;-12.94;-18.26;13.76;87.9;4.01;11.3;-334.07;-19.74;116.57;-1.38;-0.24;-0.86
1;117.03;49.46;5.97;200.12;65.3;-11.01;-10.8;-192.82;-121.99;3.61;374.63;11.05;-8.6;101.43;1.48;87.92;3.05;3.89;-184.81;-19.24;119.57;-0.17;6.5;-3.32
1;-118.32;-51.68;3.02;56.83;31.49;-12.47;-9.17;-220.26;-115;5.55;-50.98;39.32;-12.92;-19.96;17.67;82.73;3.88;10.47;-302.35;-21.04;144.08;-3.94;-0.37;-0.73
1;104.8;50.71;5.42;204.68;71.12;-9.93;-10.01;-204.17;-126.36;1.38;377.86;12.5;-8.75;111.88;-2.97;99.05;3.05;4.7;-228.83;-22.51;134.78;-0.92;5.91;-3.66
1;-120.11;-56.04;3.66;58.25;33.29;-17.37;-7.94;-223.6;-132.66;5.57;-45.92;39.62;-12.89;-16.2;20.45;91.26;3.93;11.06;-341.94;-21.19;115.73;-1.66;-0.39;-0.85
1;109.13;53.24;5.96;201.04;70.81;-9.84;-10.23;-198.82;-108.02;2.03;380.62;12.03;-8.57;109.89;1.82;83.09;2.45;4.34;-184.34;-19.28;114.37;-0.48;6.08;-3.29
1;-125.55;-51.22;3.97;61.65;35.47;-13.74;-10.57;-240.92;-135.55;6.15;-54.6;38;-13.13;-15.37;21.12;78.68;4.49;10.68;-251.23;-22.95;175.81;-2.05;0.06;-0.62
2;121.1;64.46;4.68;220.44;97.29;-0.47;-10.26;-329.99;-178.53;6.35;367.6;18.26;-7.74;186.98;14.6;140.34;3.97;6.6;-349.42;-22.35;236.37;-2.08;9.04;-5.01
2;-110.95;-49.81;6.26;61.1;41.61;-12.97;-13.93;-213.91;-138.12;6.05;-34.36;36.53;-11.62;2.33;-6.54;104.15;6.41;11.83;-220.87;-21.72;108.82;2.61;0.42;-1.33
2;102.97;52.02;5.61;206.15;100.99;0.53;-10.42;-281.29;-184.26;3.37;367.91;13.75;-8.47;180.58;12.62;84.11;2.75;3.74;-178.68;-23.27;130.01;-0.2;7.77;-4.39
2;-113.6;-46.27;6.08;66.9;46.58;-11.78;-15.04;-212.15;-149.72;4.99;-30.23;35;-11.52;8.83;2.79;85.71;5.76;11.1;-224.74;-20.57;100.45;2.5;1.41;-1.75
2;105.99;57.14;5.21;198.06;100.58;0.15;-8.92;-263.83;-168.28;3.67;336.56;15.8;-7.89;163.74;6.86;97.32;3.46;4.55;-227.57;-21.61;149.16;-2.29;8.07;-4.66
2;-109.85;-49.3;5.13;65.56;45.25;-13.59;-11.31;-212.74;-144.67;5.79;-20.99;32.26;-12.46;1.97;12.66;90.57;5.46;11.24;-269.46;-22.05;108.83;-2.16;0.19;-1.96
2;115.52;61.41;5.3;214.48;103.74;-0.1;-11.9;-330.99;-211.6;1.62;359.66;15.7;-8.06;189.46;1.43;122.33;3.04;4.85;-279.78;-23.61;210.57;-1.77;8.56;-5.09
2;-110.61;-48.9;6.83;68.17;45.1;-12.18;-17.07;-251.92;-169.21;6.17;-34.69;24.39;-11.57;2.55;-7.58;77.59;6.19;10.81;-199.73;-21.2;110.98;6;1.15;-0.81
2;108.45;51.07;4.74;206.57;98.07;0.85;-8.34;-286.32;-177.74;0.23;349.32;14.77;-8.27;153.55;11.38;85.38;2.58;3.52;-176.74;-17.45;140.11;-1.03;8.1;-4.55
2;-112.47;-47.85;6.43;67.46;50.4;-12.04;-13.58;-226.53;-161.76;6.17;-31.82;28.26;-12.03;11.82;3.29;90.81;5.78;11.13;-241.81;-22.62;119.31;3.33;0.64;-1.53
2;109.81;48.1;5.17;205.37;99.47;-0.02;-9.37;-312.02;-189.54;3.97;340.69;19.44;-7.68;161.08;16.23;113.68;3.22;5.66;-225.03;-18.45;218.79;-2.58;8.65;-4.79
2;-118.28;-48.18;6.6;69.64;49.05;-13.09;-18.84;-241.67;-160.12;5.32;-41.7;28.62;-12.06;12.29;-6.57;80.81;6.53;11.11;-184.09;-21.96;123.33;5.34;0.94;-1.43
2;110.67;56.53;5.65;218.15;107.26;0.88;-12.36;-333.01;-207.17;-0.15;361.97;17;-7.93;167.92;15.28;84.64;3.04;4.32;-142.97;-19.88;133.56;-1.69;8.52;-4.84
2;-112.21;-44.4;5.69;66.94;48.39;-14.15;-14.26;-221.86;-167.66;5.91;-30.13;29.34;-12.26;3.67;4.42;87.19;5.75;11.27;-253.66;-21.57;106.57;0.04;0.57;-1.32
2;111.96;49.78;5.19;211.1;96.75;-2.09;-8.39;-313.38;-194.71;4.98;354.07;19.53;-8.06;160.12;9.41;105.37;2.69;5.05;-230.23;-22.35;170.76;-2.28;8.72;-4.7
2;-116.72;-46.48;6.97;69.27;48.92;-13.37;-18.18;-252.31;-143.39;5.21;-46.9;26.37;-11.93;13.9;0.67;80.68;6.54;11.02;-202.64;-22.54;93.99;5.53;0.56;-1.26
2;100.53;51.11;6.49;216.15;108.76;-0.6;-9.34;-267.32;-198.62;-0.91;388.97;15.33;-8.8;175.13;12.25;96.58;2.31;3.91;-195.94;-26.48;144.49;-0.9;8.43;-5.11
2;-119.29;-45.39;7.08;67.74;45.86;-16.05;-18.62;-227.32;-161.51;7;-24.75;24.73;-12.13;12.4;0.26;97.21;6.59;12.09;-185.74;-24.85;140.87;5.48;1.07;-1.18
2;104.31;56.55;5.14;215.95;107.47;2.31;-9.04;-346.09;-201.36;1.89;343.23;17.82;-8.05;177.51;20.98;93.28;2.32;3.74;-172.62;-20.48;147.3;-2.62;8.18;-5.14
2;-114.88;-43.75;6.92;71.54;48.43;-13.63;-19.53;-248.36;-130.06;5.81;-48.57;27.07;-11.58;10.81;-5.98;72.55;6.33;11.28;-222.21;-21.6;115.84;6.16;0.74;-1.14
2;116.36;45.33;6.29;226.88;106.78;-2.28;-9.8;-299.45;-182.64;2.28;387.96;18.18;-8.39;156.42;11.25;103.94;2.49;4.41;-246.22;-21.52;165.75;-0.51;9.01;-4.85
2;-120.86;-46.93;6.53;69.19;50;-14.03;-17.05;-244.56;-155.92;5.68;-38.05;31.96;-12.05;17.25;2.85;91.22;6.12;12.22;-197.94;-23.44;131.33;1.96;0.66;-1.27
2;99.2;51.67;6.31;206.38;107.29;-4.75;-10.18;-292.65;-209.88;0.89;358.3;18.79;-8.12;185.47;17.44;101.29;2.64;5.1;-164.28;-29.11;204.03;-0.72;8.21;-5.12
2;-117.36;-46.1;6.99;63.43;40.05;-13.12;-18.31;-227.77;-160.55;5.29;-34.06;26.45;-11.96;-2.62;3.28;76.47;6.35;11.76;-168.1;-23.93;105.53;3.75;0.97;-1.07
2;103.9;53.73;6.46;211.49;107.75;-4.72;-9.86;-304.73;-193.9;4.43;349.44;19.99;-8.4;179.68;11.07;99.28;2.71;5.53;-168.96;-25.36;205.33;-1.23;7.6;-4.82
2;-120.39;-47.33;6.97;74.94;49.69;-14.43;-19.16;-248.15;-155.79;5.45;-29.67;32.91;-12.23;5.04;-1.52;80.26;6.6;12.57;-184.19;-22.48;106.3;5.29;0.95;-1.38
2;107.53;57.05;6.3;230.95;112.31;-0.67;-8.42;-317.91;-192.84;0.4;380.34;14.49;-8.31;173.93;9.18;90.94;2.62;4.39;-158.05;-21.99;137.02;-0.79;8.27;-5.04
2;-120.83;-50.21;7.46;76.41;55.52;-14.8;-16.82;-268.39;-156.88;5.26;-44.87;28.96;-11.75;22.07;-6.16;90.52;6.33;12.19;-188.94;-24.34;123.89;6.07;1.02;-1.21
2;106.33;54.56;7.45;229.19;127.68;-0.78;-14.11;-316.83;-229.57;-2.39;387.55;16.37;-8.53;191.6;15.65;98.03;2.68;4.71;-173.8;-27.2;160.94;-0.82;8.25;-5.65
2;-118.66;-55.69;7.4;76.62;53.8;-14.78;-16.7;-258.75;-186.28;6.55;-29.67;28.78;-12.36;14.86;4.26;87.7;6.83;12.58;-201.95;-24.17;138.15;5.01;1.12;-1.08
2;104;54.95;6.87;230.04;122.1;-2.96;-10.03;-335.92;-214.23;3.81;372.85;21.14;-8.51;198;20.3;102.63;2.49;5.43;-157.23;-24.79;185.53;-2.13;8.74;-5.37
2;-113.42;-48.6;7.09;64.64;43.65;-14.23;-19.22;-239.12;-128.88;6.44;-52.66;25.96;-11.55;9.89;0.64;70.35;6.98;12.21;-149.26;-22.87;87.48;5.43;1.2;-0.95
2;99.26;40.73;7.34;214.88;110.8;-4.45;-10.06;-260.59;-214.07;0.61;382.2;15.63;-8.93;171.19;8.83;95.77;2.53;5.52;-167.28;-30.51;181.43;-0.98;7.76;-5.08
2;-115.51;-49.46;7.17;65.72;43.18;-13.63;-19.12;-232.4;-164.8;7.55;-31.74;31.9;-12.08;4.47;2.43;91.63;6.94;12.53;-203.77;-24.3;143.54;4.1;0.82;-1.31
2;110.75;55.29;4.79;216.77;104.74;0.55;-9.52;-331.55;-208.64;0.09;360.74;17.81;-8.28;176.79;17.94;110.3;2.05;3.76;-249.98;-22.17;169.54;-0.2;8.4;-4.91
2;-119.13;-50.72;6.59;78.32;57.11;-14.1;-16.11;-264.06;-182.4;5.62;-49.78;26.16;-12.09;22.81;1.82;74.22;6.42;12.01;-148.72;-23.35;92.12;2.08;1.01;-0.86
2;93.58;42.33;6.8;217.48;107.59;-3.84;-9.74;-285.16;-189.16;0.26;380.04;18.6;-8.71;160.54;1.51;96.04;2.6;4.62;-182.91;-26.5;146.97;-0.86;8.52;-5.16
2;-114.79;-45.21;7.72;67.44;44.39;-14.76;-16.62;-248.33;-146.79;6.51;-32.69;30.3;-11.71;15.61;5.49;86.39;6.44;12.67;-218.41;-25.37;152.02;5.24;0.28;-0.9
2;95.07;47.1;6.6;230.42;116.44;-1.14;-11.3;-321.29;-203.74;-0.35;376.18;17.66;-8.79;176.11;8.1;98.84;2.6;4.43;-206.84;-23.55;159.07;0.21;8.49;-5.02
2;-120.1;-51.36;7.58;68.71;45.3;-14.53;-17.88;-256.11;-155.1;5.81;-41.21;32.52;-12.22;13.12;11.09;70.7;6.28;12.51;-177.43;-25.18;137.53;6.37;0.96;-1.6
2;113.5;52.66;6.13;227.26;117.96;-4.7;-11.39;-256.52;-193.68;-0.84;386.71;16.06;-8.33;188.36;-6.84;120.43;2.68;5.02;-218.04;-26.04;173.6;-0.31;8.67;-5.3
2;-122.67;-56.27;6.73;69.49;47.38;-16.07;-15.37;-248.34;-171.6;6.29;-34.78;27.85;-12.71;2.08;5.96;90.23;6.01;12.52;-174.73;-25.18;171.68;1.07;0.64;-1.13
2;110.18;46.27;6.13;217.14;115.4;0.59;-13.15;-316.17;-237.06;-0.33;364.21;17.59;-7.91;177.48;11.79;91.98;2.79;4.3;-168.62;-27.31;173.72;1.03;8.74;-4.87
2;-126.83;-50.42;6.81;67.41;41.28;-15.71;-20.83;-250.89;-163.39;6.92;-46.91;23.06;-12.61;2.35;-3.55;77.49;7.08;12.04;-228.93;-24.44;90.93;1.12;0.61;-1.11
2;123.91;54.73;4.58;234.2;115.37;-1.4;-10.47;-348.87;-199.29;-1.06;388.42;20.45;-8.4;195.48;16.4;110.63;2.88;4.43;-239.76;-20.68;165.57;-1.45;9.29;-4.61
2;-113.22;-42.52;6.3;72.79;53.24;-14.11;-17.18;-237.45;-164.56;6.22;-50.33;32.19;-11.7;19.4;0.12;69.2;6.15;11.77;-159.28;-22.61;92.04;1.29;1;-1.19
2;97.46;51.3;6.85;216.51;112.25;-6.74;-10.62;-251.35;-181.66;2.55;365.5;18.71;-8.91;188.76;1.2;111.11;3.04;5.75;-184.63;-27.13;187.72;-2.19;7.85;-5.11
2;-123.86;-56.7;6.99;71.28;49.47;-17.82;-16.49;-249.78;-162.92;6.62;-32.77;35.5;-12.73;12.5;9.12;89.03;6.42;13.65;-194.95;-22.96;139.77;4.74;0.13;-1.32
2;109.39;57.4;6;214.36;110.87;1.28;-10.11;-280.7;-187.07;-1.62;372.97;18.54;-8.13;168.4;2.4;98.42;2.42;4.26;-217.66;-21.63;162.98;-1.69;8.54;-5.13
2;-123.65;-57.29;7.31;64.02;48.74;-14.92;-14.14;-253.49;-172.27;5.57;-46.62;28.66;-12.74;15.23;10.52;77.08;5.95;12.17;-142.46;-24.21;131.98;5.63;1.33;-1.33
2;109.89;45.99;6.67;226.81;116.62;-3.96;-10.36;-271.22;-202.76;-2.29;392.35;15.63;-8.04;176.46;3.42;92.94;2.59;4.95;-213.71;-25.66;154.34;-0.16;8.21;-5.11
2;-116.85;-52.36;6.84;67.32;47.95;-12.52;-18.91;-246.44;-172.16;6.44;-39.64;25.56;-12.22;8.66;0.42;85.37;6.72;12.18;-209.29;-24.65;134.72;0.31;1.07;-0.81
2;101.99;42.02;7.4;223.97;114.91;-3.01;-11.18;-282.45;-196.81;0.94;376.23;18.38;-8.69;181.01;14.84;107.38;2.66;5.07;-187.03;-29.14;196.67;-1.05;8.3;-5.06
2;-113.73;-50.2;7.14;68.56;45.41;-13.09;-17.95;-240.45;-148.49;5.98;-34.18;30.33;-11.8;5.63;2.94;76.05;6.71;12.27;-174.75;-25.16;117.9;5.69;0.9;-1.18
2;105.12;49.28;6.31;225;109.37;-2.65;-9.44;-304.08;-193.08;-0.4;376.76;16.02;-8.45;165.13;8.37;100.18;2.53;4.11;-190.43;-22.45;138.12;-0.49;8.11;-4.65
2;-118.39;-49.15;7.01;70.92;50.3;-13.83;-15.66;-254.42;-155.34;4.72;-35.69;33.79;-12.05;10.91;12.34;70.39;6.59;12.4;-133.28;-24.65;106.56;3.5;0.93;-1.41
2;107.39;49.93;6.11;223.8;109.35;-4.32;-9.25;-266.4;-168.27;0.2;385.38;18.67;-7.73;179.75;8.58;88.14;2.38;5.08;-182.12;-22.25;172.99;-1.29;8.23;-4.79
2;-130.29;-47.88;6.23;71.74;50.44;-17.05;-15.21;-264.1;-160.22;6.16;-39.94;34.88;-13.45;23.43;0.84;104.43;6.04;13.64;-294.14;-24.13;149.24;0.23;0.15;-1.43
2;120.75;60.44;5.71;230.13;113.42;-0.46;-13.29;-323.52;-195.28;0.17;387.8;19.58;-7.99;185.68;10.83;124.49;3.02;5.26;-273.86;-22.1;209.1;-1.42;9.37;-5.79
2;-122.26;-53.73;6.78;71.59;49.54;-13.9;-17.77;-247.66;-162.34;6.03;-52.5;27.51;-12.11;-0.16;1.91;83.66;6.47;12.12;-227.61;-24.04;92.6;5.03;0.61;-1.19
2;104.53;36.17;7.37;231.86;111.9;-3.64;-11.58;-272.7;-205.66;-1.13;401.07;17.35;-8.62;174.22;12.27;118.28;2.42;4.7;-241.53;-28.25;169.63;-0.09;8.83;-5.11
2;-120.97;-42.01;6.81;70.02;40.61;-15.7;-24.33;-255.72;-147.29;6.34;-40.51;27.62;-12.4;9.96;7.9;86.7;7.46;12.64;-205.34;-23.39;161.23;4.12;-0.04;-0.93
2;112.97;52.16;7.59;231.7;115.36;-3.85;-10.22;-253.61;-189.12;-0.79;407.45;15.92;-8.59;184.34;-2.43;119.61;2.37;4.78;-230.77;-25.53;165.62;-0.85;8.1;-5.22
2;-120.42;-54.36;7.6;73.54;52.26;-15.86;-16.79;-251.04;-177.83;6.63;-31.16;31.47;-12.17;14.77;7.36;87.24;6.57;12.74;-174.76;-25.37;128.25;5.69;1.12;-1.06
2;108.42;57.62;6.78;226;117;-1.13;-14.14;-297.12;-198.82;-0.54;384.02;20.31;-8.53;164.63;11.92;82.37;3.01;4.51;-123.34;-21.45;176.73;0.76;8.88;-5.88
2;-115.12;-48.4;6.17;72.81;51.32;-16.08;-15.87;-258.3;-165.24;7.09;-43.87;28.32;-12.2;11.16;2.7;86.97;6.4;12.3;-248.2;-22.69;108.51;2.23;-0.52;-0.3
2;85.64;41.38;7.89;240.57;123.3;-1.46;-12.35;-249.22;-183.44;1.02;426.67;15.77;-8.88;201.87;7.59;95.15;3.3;4.73;-212.84;-28.01;174.98;0.15;8.49;-5.35
2;-122.01;-53.18;8.33;72.59;48.18;-15.53;-18.75;-269.05;-162.51;4.94;-28.77;34.49;-12.33;11.07;11.45;64.3;6.7;13.11;-139.65;-28.36;131.16;8.07;1.02;-1.5
2;106.69;42.2;7.73;243.24;119.88;-4.78;-9.95;-285.05;-204.97;1.78;408.75;18.13;-8.61;177.44;9.25;109.79;2.67;5.85;-181.26;-28.84;198.63;-1.16;8.56;-5.17
2;-120.93;-45.8;8.34;77.31;53.16;-15.45;-22.4;-281.35;-145.88;6.95;-31.41;26.3;-12.09;25.38;2.65;83.87;7.77;13.38;-161.41;-25.93;165.79;6.63;0.74;-0.88
2;101.32;54.4;8.6;244.72;130.12;-9.3;-12.31;-300.85;-186.62;4.22;411.49;18;-8.88;210.69;19.26;100.43;3.44;5.84;-175.23;-32.65;267.67;-1.31;7.96;-5.52
2;-123;-48.92;10.33;74.5;51.47;-15.23;-21.58;-273.05;-160.04;6;-32.33;34.07;-11.91;21.84;5.49;70.2;7.82;14.4;-130.2;-31.98;160.24;13.3;1.1;-1.5
2;105.18;41.56;6.59;237;114.75;-4.09;-8.31;-313.05;-209.3;1.12;396.97;18.63;-8.32;164.31;4.41;92.81;2.44;5.04;-186.61;-23.65;143.47;-1.78;8.57;-4.76
2;-120.76;-47.21;8.83;69.01;51.59;-15.51;-19.91;-259.36;-160.5;5.8;-44.32;28.35;-11.96;25.68;9.04;67.44;7.35;12.56;-131.03;-26.68;143.62;7.71;0.98;-1.35
2;94.79;48.92;6.53;238.75;124.86;-3.13;-9.13;-330.23;-216.85;1.75;403.1;17.79;-8.76;190.1;6.5;97.17;2.53;5.24;-236.69;-25.87;178.09;0.55;7.76;-4.84
2;-115.01;-48.6;8.88;75.5;58.95;-16.66;-18.68;-272.03;-183.83;6.13;-34.84;29.96;-11.73;32.15;-2.81;76.43;7.53;13.29;-160.31;-27.68;120.76;6.8;2.08;-1.31
2;93.74;41.67;7.67;247.05;125.21;-0.47;-9.09;-367.79;-216.2;3.08;394.71;20.7;-8.48;172.8;19.99;68.73;2.87;5.14;-134.86;-24.53;156.59;-0.94;8.12;-5.08
2;-124.92;-55.8;9.14;80.45;60.43;-16.16;-19.43;-273.67;-157.69;6.73;-41.33;34.39;-12.01;43.3;-10.97;91.34;7.35;13.43;-183.67;-27.93;109.55;8.61;1.24;-1.34
2;106.42;52.37;7.56;237.73;131.34;-0.83;-10.54;-294.25;-194.56;-0.8;400.62;15.15;-8.19;193.98;21.08;85.31;2.52;3.69;-179.44;-25.73;176.98;-0.21;9.25;-5.63
2;-123.67;-48.6;7.15;74.07;48.96;-16.22;-18.97;-277.42;-151.41;5.68;-35.84;27.32;-12.47;20.33;16.07;63.65;6.88;12.72;-121.62;-25.78;138.96;1.7;0.23;-1.1
2;105.51;45.66;7.37;233.02;117.69;-3.65;-10.54;-289.79;-199.1;-0.19;393.59;18.16;-8.13;166.06;-3.07;121.37;2.82;5.23;-263.1;-26.83;211.78;-0.28;8.47;-5.06
2;-124.25;-53.95;8.6;77.75;50.57;-17.95;-20.88;-273.34;-169.9;7.54;-31.31;27.7;-12.42;20.23;15.15;77.83;7.42;13.38;-161.53;-27.99;142.36;6.21;0.93;-1.6
2;108.2;51.86;6.88;240.02;117.41;-0.87;-9.38;-313.83;-194.25;1.03;405.63;14.77;-8.19;170.39;13.5;87.59;2.6;3.83;-156.17;-26.58;120.63;-0.57;8.52;-4.87
2;-130.48;-47.95;8.69;74.03;55.51;-16.29;-22.81;-278.83;-177.31;6.44;-51.77;29.84;-12.52;33.68;-3.06;73.43;7.74;13.41;-149.07;-26.55;161.02;7.34;1.37;-1.17
2;108.7;55.69;7.51;243.39;120.21;-2.3;-9.08;-303.36;-191.91;1.95;417.09;19.35;-8.27;175.9;10.16;87.08;2.9;5.85;-225.4;-22.63;128.86;-0.56;8.52;-5.58
2;-124.24;-57.98;8.01;77.02;58.57;-17.82;-15.3;-279.18;-180.52;6.4;-39.13;28.45;-12.68;30.31;9.2;71.32;6.62;13.58;-180.69;-25.99;116.84;4.85;1.26;-1.33
2;97.39;31.73;6.89;239.34;113.01;-6.56;-10.21;-289.59;-202.75;3.92;424.45;16.61;-8.64;168.46;0.64;105.45;3.33;5.35;-287.1;-27.81;149.88;0.33;8.26;-4.69
2;-135.82;-57.54;8.92;81.34;55.68;-17.96;-21.18;-286.26;-179.47;6.38;-36.93;27.76;-12.8;31.04;4.26;74.78;7.28;13.22;-133.26;-29.64;194.33;7.22;1.33;-1
2;115.36;60.08;6.84;242.04;126.88;-1.54;-11.8;-299.26;-189.79;3.71;416.59;14.21;-7.87;196.84;22.98;84.76;3.39;4.56;-167.79;-26.68;192.5;-0.24;8.43;-5.17
2;-129.75;-49.43;8.62;72.73;52.5;-17.55;-19.14;-262.05;-159.47;6.28;-41.95;34.85;-12.62;23.69;-4.24;78.99;7.51;14.2;-176.97;-27.44;142.32;8.78;1.2;-1.45
2;113.7;58.96;6.76;236.52;118.7;-6.48;-10.96;-331.61;-211.47;-0.37;395.23;23.74;-7.48;185.12;15.31;91.66;2.59;5.69;-167.05;-21.79;193.31;-1.1;8.86;-5.63
2;-122.62;-56.09;8.98;80.97;59.81;-15.36;-18.63;-281.54;-184.85;5.82;-41.25;25.39;-12.29;36.41;-4.51;84.06;7.03;12.64;-180.97;-27.23;127.83;8.43;1.45;-1.45
2;87.44;27.23;7.94;247.77;132.93;-2.73;-16.41;-274.4;-238.39;4.37;430.34;28.1;-8.12;187.21;9.73;105.33;4.11;6.59;-297.31;-28.94;166.76;-0.56;9.01;-5.17
2;-118.81;-51.8;7.44;70.38;43.11;-16.29;-19.91;-262.1;-134.45;7.11;-43.97;31.96;-12.85;15.66;5.34;86.44;6.94;12.08;-175.78;-24.84;138.17;1.93;-0.36;-1.36
2;110.88;42.96;8.73;218.81;125.1;2.86;-18.25;-308.95;-273.1;16.45;384.01;16.29;-8.71;180.85;24.16;112.82;5.62;3.71;-223.4;-37.21;215.31;2.27;9.17;-5.15
2;-126.1;-43;11.54;82.21;46.02;-17.68;-30.83;-290.17;-134.21;9.64;-34.32;34.07;-11.54;30.59;-2.97;95.56;9.61;13.86;-173.14;-33.45;136.25;17.85;0.52;-1.56
2;111.91;55.84;7.2;248.17;123.58;-0.58;-11.26;-283.97;-167.93;4.8;426.34;14.74;-7.82;183.03;24.83;83.95;3.83;4.53;-184.52;-23.08;147.37;0.76;8.52;-5.41
2;-132.73;-56.34;7.78;73.7;49.6;-19.22;-15.66;-269.73;-160.02;5.98;-41.38;34.98;-13.54;15.42;9.82;88.62;6.49;14.42;-232.17;-26.76;150.01;5.48;0;-1.68
2;105.55;60.52;5.84;234.14;118.53;-7.75;-9.1;-331.68;-194.04;-0.38;390.74;18.9;-7.88;201.25;-4.45;121.17;2.65;5.6;-246.22;-22.26;152.18;-1.9;8.75;-5
2;-120.28;-54.22;8.83;69.27;52.73;-13.84;-14.44;-261.07;-161.48;5.24;-34.09;34.44;-12.08;20.35;5.66;70.4;6.79;12.89;-154.04;-28.54;127.24;6.74;1.18;-1.34
2;91.49;57.79;5.7;237.1;116.88;-6.31;-9.45;-343.3;-179.27;0.91;391.11;16.14;-8.19;187.83;12.19;120.4;3.41;5.03;-234.14;-19.45;196.54;-0.38;8.78;-5.25
2;-134.87;-55.93;7.45;79.92;54.92;-15.32;-13.78;-263.3;-157.69;6.24;-55.98;24.5;-12.7;18.84;-6.62;74.47;5.77;11.84;-160.81;-25.95;107.68;3.98;1.02;-1.03
2;129.71;60.25;6.67;236.09;114.94;-0.64;-10.38;-299.51;-182.16;1.1;407.34;16.23;-7.14;169.03;13.93;101.28;2.65;4.25;-255.01;-24.33;170.59;-1.06;9.57;-5.65
2;-133.67;-59.07;7.64;80.7;50.63;-20.72;-17.75;-291.8;-154.58;5.86;-38.38;30.21;-13.24;8.66;18.55;74.49;6.81;14.18;-133.73;-26.69;147.45;1.3;0.54;-1.92
2;101.58;51.76;7.01;248.42;132.98;-5.31;-13.25;-277.94;-210.08;-0.19;430.68;23.94;-7.32;206.21;-9.78;123.3;3.23;5.53;-287.08;-25.46;116.49;-0.53;9.28;-5.62
2;-130.35;-60.47;8.79;68.61;38.68;-18.24;-19.94;-257.4;-164.21;8.17;-39.17;31.59;-13.62;-9.39;11.43;75.73;7.45;13.52;-139;-28.44;161.76;6.44;0.45;-0.9
2;110.99;48.22;6.94;236.28;123.67;0.59;-8.38;-307.2;-209.89;4.14;398.53;18.88;-8.16;185.71;10.4;80.36;2.64;3.54;-172.59;-28.63;141.92;0.11;8.94;-4.58
2;-119.47;-47.08;10.22;73.08;49.53;-15.88;-25.69;-273.59;-132.33;7.21;-37.22;30.08;-11.94;29.49;-12.05;86.93;8.82;13.54;-193.29;-30.27;179.25;11.54;0.84;-0.98
2;99.38;34.55;7.86;240.26;121.81;-2.64;-10.52;-303.34;-223.12;2.47;405.39;15.47;-8.65;159.77;22.89;76.93;2.86;5.44;-139.69;-30.2;203.75;-0.34;8.7;-5.08
2;-130.22;-51.85;9;80.56;47.76;-15.97;-21.61;-277.23;-143.54;6.45;-36.4;26.77;-12.33;24.34;1.28;73.53;7.62;13.02;-152.3;-28.06;121.88;9.26;0.57;-0.65
2;102.22;53.83;7.36;239.15;123.5;-1.96;-8.67;-273.37;-181.3;-1.91;412.83;16.12;-8.29;184.85;5.43;79.63;1.8;4.46;-181.34;-25.38;130.27;-1.46;8.55;-5.53
2;-129.53;-57.51;8.95;78.18;51.05;-17.46;-16.11;-282.36;-165.81;6.05;-31.4;30.94;-12.79;24.3;3.97;81.37;6.87;13.99;-168.27;-28.86;176.11;7.38;0.62;-1.07
2;97.53;51.58;7.53;244.17;130.87;0.37;-10.82;-284.94;-205.11;-0.23;419.99;26.64;-7.66;206.08;8.42;81.25;2.26;5.76;-207.85;-24.71;144.62;-0.48;9.39;-5.21
2;-126.14;-55.12;8.81;83.24;52.16;-20.11;-20.12;-289.16;-157.76;6.76;-23.69;30.47;-12.47;18.24;0.91;88.71;7.48;13.39;-161.68;-26.88;158.04;6.38;0.15;-0.87
2;100.14;55.08;7.6;253.52;131.24;-2.04;-11.63;-340.19;-218.38;1.12;419.47;18.06;-7.78;191.97;18.55;91.41;2.96;4.55;-176.83;-23.48;179.33;-0.44;9.12;-5.81
2;-128.49;-57.64;8.98;82.76;52.65;-14.44;-20.4;-300.74;-143.57;6.45;-46.11;26.81;-12.4;21.19;1.14;61.4;7.49;12.45;-109.94;-26.69;113.31;9.89;1.32;-0.92
2;109;53.03;8.08;260.01;136.21;-5.77;-12.65;-282.86;-195.11;-2.31;449.64;24.24;-8.37;203.09;8.06;116.45;2.89;5.77;-223.8;-27.97;239.27;0.55;9.02;-5.84
2;-128.8;-56.43;8.74;78.39;48.85;-21.07;-20.17;-273.6;-162.17;6.46;-31.63;32.2;-12.97;20.45;23.73;76.93;7.19;14.51;-120.77;-26.34;169.71;5.55;0.35;-1.59
2;101.63;50.98;6.29;237.01;124.9;-2.49;-10.63;-274.89;-193.47;-0.6;405.95;19.41;-7.87;186.38;-6.54;102.59;2.46;5.42;-249.16;-24.78;154.35;-0.58;8.53;-5.29
2;-122.38;-57;8.83;74.47;47.23;-15.23;-15.95;-260.62;-160.19;7.06;-28.49;30.47;-12.72;8.55;10.56;52.25;7.43;13.27;-94.11;-27.74;83.76;6.22;1.54;-0.85
2;102.05;53.66;5.97;242.91;128.15;-3.9;-12.26;-309.31;-185.02;3.24;409.15;17.57;-7.92;204.36;14.4;79.04;3.32;5.77;-165.65;-19.81;239.02;-0.67;8.26;-5.25
2;-136.88;-60.26;7.55;83;54.41;-18.04;-14.87;-291.51;-163.88;6.16;-33.72;31.78;-13.14;25.76;5.43;72;6.74;13.44;-140.92;-26.97;125.11;3.86;1.17;-1.13
2;117.24;65.87;7.92;241.81;126.05;-2.96;-11.05;-312.32;-195.25;3.74;411.48;15.13;-7.38;199.19;15.45;91.57;3.34;5.13;-164.83;-30.39;217.08;0.33;8.58;-5.72
2;-134.11;-57.37;9.89;85.68;52.71;-18.27;-20.65;-299.13;-156.64;6.24;-30.46;32.12;-12.36;14.96;-11.43;86.45;7.93;14.48;-201.42;-30.39;133.99;13.46;1;-1.31
2;118.85;49.38;7.33;253.16;129.28;-1.22;-11.48;-318.25;-219.71;-0.13;442.44;15.92;-8.47;200.28;11.95;108.94;3.03;4.29;-205.01;-23.33;185.87;-1.05;9.33;-5.39
2;-122.19;-54.7;8.97;75.74;56.5;-15.29;-18.61;-269.91;-183.11;6.4;-40.66;25.71;-12.42;28.61;5.42;75.49;7.3;13.16;-151.31;-29.11;150.22;5.46;1.64;-1.15
2;89.8;38.47;7.96;249.11;129.76;-6.79;-12.05;-321.84;-229.75;4.11;409.96;16.95;-8.35;176.78;18.2;98.43;3.62;6.72;-180.12;-28.19;271.4;0.11;8.53;-5.42
2;-126;-53.41;9.27;81.36;49.9;-16.27;-19.71;-283.56;-135.13;6.18;-38.95;27.81;-12.43;25.69;-0.11;74.07;7.67;12.85;-141.65;-28.03;102.93;8.36;0.81;-1.33
2;111.01;53.8;7.74;252.5;136.24;-3.91;-13.07;-310.41;-216.26;-1.21;424.69;16.38;-8.13;219.37;15.41;96.08;2.7;4.94;-167.33;-27.78;209.66;-0.11;9.29;-5.82
2;-118.26;-51.45;9.3;76.37;54.62;-15.62;-20.43;-275.37;-161.17;6.62;-34.51;25.54;-12.01;34.52;1.94;71.29;7.47;13.02;-123.84;-29.72;150.76;7.47;1.83;-1.35
2;79.72;39.24;7.69;245.64;134.97;-3.2;-12.62;-289.06;-213.84;3.53;418.25;25.74;-8.15;213.11;6.04;93.79;3.6;6.18;-231.6;-27.49;188.58;-0.21;8.94;-5.38
2;-121.58;-59.19;8.99;80.93;52.19;-17.12;-20.74;-282.5;-144.02;7.22;-29.33;29.88;-12.58;23.77;-1.77;78.4;7.58;12.13;-138.67;-27.72;157.4;8.62;0.4;-0.86
2;110.33;54.48;6.92;246.89;130.02;1.32;-12.13;-307.97;-187.62;-0.92;420.42;21.57;-7.22;218.88;17.99;104.34;2.97;4.51;-233.92;-21.24;211.1;0.48;9.12;-5.39
2;-122.18;-54.02;8.13;78.07;51.79;-17.56;-14.58;-280.69;-160.81;6.34;-32.07;25.09;-12.72;28.22;7.85;79.45;6.55;13.32;-176.26;-27.55;98.36;5.21;0.81;-1.33
2;90.09;33.74;8.2;260.44;129.31;-2.99;-12.76;-311.65;-234.16;9.63;451.89;31.38;-8.54;195.63;7.03;110.65;3.83;7.15;-245.84;-33.7;147.84;-0.02;9.56;-5.21
2;-125.37;-50.68;10.63;80.23;51.22;-21.4;-26.23;-275.17;-135.77;10.08;-20.89;40.73;-12.11;33.82;-4.59;110.66;8.83;14.53;-230.83;-34.07;243.91;12.98;-0.43;-1.15
2;112.68;55.68;8.38;244.47;129.68;-4.25;-13.63;-310.12;-205.4;1.44;416.66;16.68;-7.86;196.52;18.4;97.11;3.3;4.79;-186.65;-28.89;232.22;0.26;8.83;-5.62
2;-121.29;-51.48;8.85;81.98;53.54;-19.02;-21.87;-286.18;-163.95;7.3;-36.1;24.73;-12.08;32.03;6.21;70.02;8.03;13.64;-168.63;-27.83;137.93;9.25;1.39;-1.09
2;92.36;48.75;8.42;251.74;132.58;-1.47;-11.9;-317.79;-212.73;3.03;419.82;16.37;-8.54;192.68;19.32;86.99;3.87;5.7;-131.96;-32.36;228.24;-0.05;8.44;-5.59
2;-129.47;-47.61;9.82;82.25;54.51;-18.23;-23.81;-293.04;-144.28;6.49;-39.2;27.48;-12.08;37.25;-1.27;72.69;8.3;13.3;-129.71;-29.22;154.56;12.79;0.96;-0.98
2;94.57;44.87;7.81;253.2;130.86;0.65;-10.65;-289.49;-191.72;0.87;431.46;28.76;-7.99;204.68;7.35;79.71;3.46;5.75;-197.75;-28;134.68;-0.26;9.49;-5.61
2;-122.44;-50.43;9.44;76.4;50.33;-16.54;-19.95;-278.21;-138.83;6.96;-35.66;26.52;-12.48;26.96;3.28;80.34;7.76;12.68;-144.46;-27.7;177.95;9.44;0.23;-1.19
2;102.38;38.02;8.41;257.54;114.94;-3.61;-10.54;-323.98;-212.63;4.97;439.46;15.17;-8.1;159.52;18.87;85.26;3.56;5.61;-135.28;-33.22;166.28;0.24;8.7;-5.21
2;-120.1;-45.93;10.18;75.65;56.02;-15.34;-23.59;-280.5;-129.23;9.33;-36.9;29.62;-11.65;48.84;10.75;78.98;8.2;13.26;-104.08;-30.27;171.93;12.41;0.99;-1.04
2;95.35;37.08;7.92;241.91;118.41;-7.73;-11.32;-308.32;-207.97;7.84;407.3;20.17;-8.25;179.72;7;91.44;4.3;7.14;-199.21;-31.2;239.07;0.14;9.04;-5.23
2;-127.86;-46.57;9.21;74.65;48.86;-19.12;-23.35;-264.85;-124.11;6.57;-38.65;31.76;-12.32;31.6;-2.78;91.11;7.97;13.48;-155.19;-28.09;184.59;6.45;0.16;-0.82
2;98.22;50.41;7.86;244.82;128.64;-2.27;-10.62;-331;-239.73;2.03;420.18;25.43;-8.17;194.05;14.48;93.06;3.68;6.01;-240.37;-29.84;220.8;-0.07;8.96;-5.8
2;-118.55;-52.4;10.37;77.95;54.34;-15.7;-22.59;-275.47;-142.15;7.5;-28.43;35.98;-11.94;30.4;-6.61;91.46;8.12;13.77;-176.44;-29.93;169.82;11.28;1.16;-1.09
2;98.67;48.15;7.6;251.14;132.7;0.05;-11.86;-317.74;-211.01;1.22;429.08;18.81;-8.43;204.35;17.17;74.66;3.29;4.65;-210.88;-25.87;136.13;-0.44;8.84;-5.32
2;-117.03;-55.23;9;75.05;54.97;-16.43;-17.7;-269.5;-171.01;8.02;-27.25;23.88;-12.09;35.75;10.51;63.85;7.29;12.51;-92.29;-28.84;116.14;7.09;1.16;-1.1
2;90.53;50.66;7.94;241.41;127.68;-10.48;-13.49;-295.49;-208.83;1.52;402.54;17.22;-8.06;192.21;6.41;90.26;3.89;7.25;-163.6;-29.87;276.62;0.29;8.43;-5.84
2;-138.06;-60.56;8.4;84.45;52.29;-20.01;-17.83;-288.56;-140.15;6.89;-30.03;26.06;-12.71;24.01;-5.57;97.63;7.05;13.9;-229.1;-27.49;156.67;5.35;1.38;-0.56
2;138.04;50.83;8.16;238.57;127.15;-7.88;-12.93;-302.97;-229.22;3.39;422.7;20.3;-7.76;194.07;31.01;95.77;3.06;5.65;-143.55;-31.96;281.1;0.19;9.3;-6.24
2;-127.87;-44.83;8.91;78.17;47.17;-18.83;-22.7;-281.49;-141.94;9.06;-42.34;26.74;-12.41;24.14;3.71;84.37;8.11;14.16;-216.79;-27.74;144.29;6.31;-0.02;-0.7
2;99;44.27;8.05;246.72;130.38;-0.45;-11.91;-282.78;-212.56;0.92;422.72;20.79;-8.56;191.01;-4.43;117.2;3.23;4.31;-254.17;-29.64;166.64;-0.35;8.8;-5.92
2;-123.87;-59.13;9.47;81.97;50.39;-19.74;-18.81;-280.95;-173.56;7.64;-23.83;29.79;-12.45;8.61;4.9;82.06;7.66;14.06;-159.97;-29.23;172.45;8.66;0.91;-0.94
2;91.5;39.16;6.64;247.01;129.91;-1.3;-13.26;-270.84;-219.69;3.84;431.67;30.12;-8.49;201.03;13.13;92.54;4.22;6.72;-246.67;-24.9;171.11;-0.65;9.65;-5.26
2;-122.49;-48.11;8.39;84.4;51.06;-18.51;-20.54;-307.68;-141.07;6.52;-25.84;33.43;-12.71;24.76;5.63;102.58;7.73;13.45;-161.58;-27;225.68;4.53;-0.15;-1.07
2;96.84;48.38;8.42;268.37;149.05;-1.51;-15.93;-319.74;-238.98;2.63;461.68;25.93;-8.37;252.22;8;115.88;4.35;6.84;-277.44;-28.68;224.33;1.32;9.39;-5.5
2;-125.16;-58;9.9;78.63;49.16;-16.07;-22.51;-273.56;-152.7;6.89;-40.73;33.98;-12.6;17.21;2.31;90.3;7.93;13;-164.91;-29.44;186.32;9.78;0.42;-0.96
2;97.09;52.44;7.45;259.02;134.73;-4.13;-10.76;-323.2;-217.6;1.25;435.27;16.95;-7.71;206.36;6.03;90.61;2.98;6.21;-180.21;-23.52;159.31;0.57;8.48;-5.66
2;-114.87;-57.1;9.86;73.86;49;-15.21;-17.27;-269.13;-148.98;6.21;-31.68;26.73;-12.19;22.23;11.24;54.85;7.18;13.37;-90.45;-27.33;108.93;13.96;2.2;-1.36
2;88.27;35.24;6.78;242.97;120.89;-6.09;-12.05;-332.93;-224.13;8.24;404.49;19.23;-7.9;186.72;4.39;83.03;3.71;5.94;-199.88;-27.05;125.12;-0.01;8.7;-4.62
2;-125.39;-54.18;8.87;76.15;48.22;-17.62;-20.81;-266.23;-125.73;7.2;-43.2;26.65;-12.61;26.87;-0.73;68.78;7.67;12.51;-127.01;-28.29;123.27;6.54;1.29;-1.11
2;109.71;42.99;8.22;247.08;124.73;-0.69;-12.54;-323.32;-233.45;11.75;416.75;16.02;-8.34;176.75;17.45;85.14;3.9;4.89;-176.58;-31.25;169.31;-0.02;9.44;-5.37
2;-120.86;-46.95;9.83;74.95;47.73;-15.64;-23.47;-261.91;-131.43;7.23;-37.98;31.17;-12;24.11;-8.22;92.34;8.51;13.66;-210.09;-30.17;144.07;8.26;0.59;-1.22
2;102.52;37.8;8.38;248.27;121.49;-0.52;-10.76;-288.57;-198.33;1.59;438.89;16.92;-8.32;155.29;20.64;71.97;3.18;5.03;-139.21;-30.12;146.57;0.1;8.62;-5.57
2;-127.9;-51.63;9.15;77.06;44.04;-16.53;-17.81;-274.77;-137.92;5.8;-32.24;26.55;-12.24;9.86;3.34;82.19;6.91;13.34;-143.23;-27.71;152.5;10.05;0.78;-0.84
2;100.13;42.54;8.07;248.74;122.64;-3.99;-9.91;-329.7;-224.05;1.49;419.79;21.42;-8.14;181.37;7.19;97.86;3.04;5.61;-209.34;-28.24;154.21;-0.91;9.14;-5.37
2;-124.83;-57.68;10.43;86.91;53.55;-18.1;-24;-295.36;-138.44;7.32;-32.42;33.07;-12.21;29.66;1.13;80.16;8.32;13.71;-153.3;-28.55;115.26;12.08;0.98;-1.12
2;91.49;41.47;6.85;250.32;130.25;-1.95;-11.65;-333.12;-209.42;6.34;418.46;26.51;-7.87;182.68;14.66;99.06;3.81;6.56;-270.02;-29.15;233.33;-0.23;9.22;-5.03
2;-126.86;-55.59;9.12;79.1;49.48;-18.19;-18.65;-273.07;-134.1;6.93;-35.23;30.5;-12.56;21.43;5.75;84.33;7.51;13.38;-171.9;-27.63;131.74;6.94;0.74;-1.38
2;105.82;52.61;7.47;247.47;132.22;0.47;-9.61;-326.24;-210.82;5.23;419.91;25;-7.7;206.75;10.49;83.26;2.75;5.24;-190.89;-28.14;152.49;-0.72;9.55;-5.25
2;-121.45;-46.12;9.31;81.76;50.14;-17.55;-21.37;-297.67;-136.84;6.09;-25.86;29.63;-12.3;28.97;2.63;77.81;7.99;13.54;-138.63;-27.1;172.77;7.75;1.01;-1.25
2;85.25;44.31;6.92;261.75;133.21;-5.51;-11.11;-321.35;-206.63;3;439.6;19.5;-7.69;203.61;6.03;90.94;3.82;5.77;-185.53;-22.61;179.92;0.92;8.91;-5.44
2;-126.38;-56.86;9.5;80.45;56.25;-15.74;-14.03;-276.88;-133.48;6.65;-26.01;24.92;-12.41;31.41;-1.18;71.71;6.97;12.27;-133.63;-28.32;124.56;12.48;1.32;-1.05
2;112.2;49.07;8.86;254.98;130.8;-6.05;-11.8;-327.38;-241.05;8.17;426.87;18.78;-7.19;190.29;21.89;89;3.49;6.04;-163.2;-30.26;248.11;1.89;9.63;-5.8
2;-133.27;-55.68;9.13;83.61;55.46;-15.17;-23.25;-290.22;-137.81;12.07;-43.33;33.48;-12.47;34.52;-1.47;75.58;8.4;12.66;-129.63;-27.18;132.23;8.69;1.13;-1.15
2;112.75;43.18;7.96;256.69;129.77;0.62;-10.77;-316.78;-222.81;6.98;449.07;25.16;-7.86;198.66;13.55;90.15;3.48;4.86;-204.17;-30.01;161.4;0.16;9.4;-5.03
2;-124.25;-48;9.1;82.84;52.85;-16.45;-21.19;-292.28;-140.57;6.91;-31.75;29.14;-12.3;29.81;2.95;77.97;7.8;13.03;-122.06;-27.66;169.27;6.22;0.86;-1.12
2;90.6;38.94;7.37;254.38;130.64;-3.95;-9.48;-354.24;-213.06;10.77;416.9;22.28;-8.24;190.99;14.34;83.21;4.05;5.36;-193.22;-30.67;183.8;-0.41;8.88;-4.54
2;-125.44;-42.77;9.78;86.29;55.12;-16.79;-21.8;-296.89;-134.77;5.79;-28.99;30.05;-12.06;43.92;0.41;87.25;8.11;13.33;-148.55;-28.15;158.92;9.87;1;-1.44
2;98.51;40.09;7.64;259.01;130.39;-2.22;-16.05;-360.7;-230.63;13.17;443.23;24.97;-8.43;188.39;10.32;89.76;4.99;6.5;-212.18;-31.45;195.61;1.42;8.95;-5.13
2;-128.03;-49.76;9.98;82.78;55.76;-17.57;-23.32;-277.49;-141.98;8.25;-34.59;36.52;-12.12;41.35;-8.53;95.21;8.48;14.28;-191.1;-30.08;189.06;8.19;0.86;-0.95
2;102.46;50.23;7.68;253.17;139.21;0.74;-11.72;-318.31;-218.97;1.3;433.53;18.61;-8.07;197.68;8.87;68.76;3.42;5.1;-163.47;-21.91;119.28;0.38;9.14;-5.95
2;-113.31;-50.71;9.2;81.66;55.39;-17.28;-17.95;-285.78;-145.01;6.71;-17.37;22.3;-12.14;28.89;2.3;81.18;7.57;13.15;-167.22;-28.22;116.81;7.47;1.52;-1.45
2;91.76;31.09;6.66;260.67;130.42;-4.23;-14.52;-312.06;-231.11;3.76;433.59;23.79;-8.19;188.82;6.21;84.16;3.74;5.7;-233;-23.9;130.49;-0.21;8.97;-5.2
2;-136.32;-60.6;8.77;90;53.34;-17.58;-17.83;-298.46;-142.68;6.42;-35.45;30.92;-12.72;16.6;-5.46;92.24;6.92;13.13;-202.66;-28.97;109.08;9.23;0.99;-0.94
2;107.42;56.59;7.13;258.65;146;-0.33;-25.13;-313.09;-269.82;5.5;447.99;34.05;-7.68;225.1;10.44;102.32;5.25;6.59;-262.07;-24.02;151.51;-0.75;10.33;-6.48
2;-113.46;-54.07;9.63;71.31;51.51;-15.37;-20.96;-264.43;-133.51;6.47;-34.15;37.99;-12.47;27.43;8.42;79.44;7.71;13.67;-197;-30.64;199.97;8.82;0.77;-0.89
2;93.6;37.47;7.55;245.11;125.25;-3.77;-20.08;-296.93;-234.2;7.37;421.89;22.43;-8.37;173.06;9.85;103.81;4.87;6.98;-268.89;-31.07;247.17;0.63;9.06;-5.53
2;-133.52;-51.53;9.41;79.49;49.43;-18.18;-23.52;-277.46;-129.7;7.22;-34.83;36.95;-12.72;29.45;-1.05;91.87;7.97;13.65;-188.54;-29.99;207.72;9.12;0.54;-0.64
2;115.19;54.03;6.82;252.15;132.28;0.14;-12.28;-318.77;-203.43;3.22;442.48;19.77;-7.98;212.94;20.81;98.98;4.24;4.52;-169.29;-25.35;221.78;-0.22;9.5;-5.29
2;-122.12;-48.29;9.38;75.36;56.08;-16.38;-19.33;-279.98;-140.25;6.43;-36.44;23.88;-12.33;38.12;2.08;71.55;7.58;12.66;-122.71;-27.62;161.65;8.33;1.61;-1.31
0;89.69;42.8;4.63;176.91;89.65;-10.01;-9.36;-187.21;-114.68;5.32;336.12;14.14;-8.98;188.82;-3.25;110.98;3.58;6.65;-262.89;-19.13;187.49;-0.78;4.71;-2.48
0;-86.5;-27.39;3.82;48.74;14.73;-7.03;-7.47;-186.46;-93.12;10.6;-27.45;18.21;-11.32;-9.44;6.05;56.58;3.25;5.12;-150.72;-25.22;74.43;-3.53;0.7;0.98
0;92.14;42.84;5.07;189.8;85.05;-11.77;-10.45;-197.75;-85.58;4.77;358.48;16.54;-9.27;189.49;0.19;121.37;3.78;7.48;-288.14;-19.9;170.76;-0.26;4.45;-2.13
0;-88.92;-35.41;2.25;48.19;17.31;-13.66;-6.82;-181.62;-81.02;5.86;-33.89;20.03;-11.49;-12.96;-2.83;78.64;2.96;6.3;-260.3;-17.3;84.45;-5.43;0.8;0.87
0;85.11;39.74;4.09;177.21;86.2;-7.72;-7.18;-190.6;-82.47;5.03;326.62;12.36;-8.98;168.83;5.42;87.85;3.26;5.5;-165.62;-18.11;150.63;0.26;4.72;-1.94
0;-85.51;-28.71;1.24;44.94;12.04;-4.16;-2.19;-175.62;-63;5.62;-42.77;14.86;-11.28;-17.07;4.64;72.7;1.95;5.15;-200.24;-13.86;69.81;-7.86;1.2;0.73
0;87.55;47.33;4.93;177.81;87.8;-12.01;-11.19;-182.41;-74.7;5.53;341.07;15.78;-9.31;201.66;-1.1;123.43;4.04;7.21;-297.7;-20.24;156.53;0.48;4.65;-2.37
0;-89.81;-32.34;3.07;49.09;15.23;-13.18;-4.48;-191.99;-68.33;5.9;0.41;22.31;-11.58;-14.15;-1.87;70.75;2.62;5.9;-220.77;-21.21;80.22;-5.43;0.26;0.76
0;98.6;62.37;4.63;179.99;92.95;-12.85;-9.41;-200.95;-91.2;5.28;328.18;15.98;-9.16;203.56;7.92;126.31;3.79;7.98;-295.65;-18.97;174.28;-0.34;4.95;-2.82
0;-93.29;-35.47;2.43;40.07;13.17;-14.27;-4.82;-173.84;-68.29;5.75;-19.47;23.78;-11.38;-19.18;5.16;95.15;2.22;6.06;-331.07;-17.62;121.44;-7.03;0.45;0.89
0;94.16;47.68;4.42;177.76;94.56;-8.93;-9.86;-199.44;-98.6;4.23;333.27;14.36;-9.01;216.84;-9.8;113.77;3.59;7.07;-246.47;-17.59;199.54;-0.66;4.55;-2.29
0;-88.53;-39.41;2.27;50.08;20.55;-22.09;-6.64;-190.82;-88.09;6.71;-12.04;27.22;-11.56;-17.76;-1.37;96.63;2.9;7.99;-311.47;-18.71;110.25;-6.16;0.63;0.73
0;94.11;47.14;4.41;192.59;99.18;-10.85;-8.11;-205.19;-105.58;6.23;373.67;14.69;-9.01;198.63;8.87;107.44;3.67;6.82;-235.08;-18.29;175.09;-1.1;4.71;-2.17
0;-85.81;-35.59;2.86;49.36;16.16;-16.26;-4.99;-189.35;-82.77;5.6;3.97;26.1;-11.51;-14.84;-2.27;84.66;2.15;6.66;-277.99;-19.41;116.09;-6.03;0.17;1.07
0;87.28;45.2;5.08;175.78;94.5;-10.65;-10.08;-188.28;-110.82;4.82;333.06;14.88;-8.75;196.18;-11.26;110.38;3.91;7.13;-265.02;-20.07;191.58;1.15;4.4;-2.46
0;-89.36;-39;3.99;47.3;19.44;-12.13;-7.35;-187.33;-102.81;7.45;26.9;26.38;-11.51;-23.05;7.56;80.46;3.08;6.79;-229.4;-28.23;100.48;-0.94;0.32;1.16
0;82.75;39.02;4.6;176.99;89.18;-11.1;-8.34;-204.79;-94.12;4.39;332.69;12.96;-9.27;174.88;6.06;102.34;3.4;6.62;-216.93;-19.74;207.37;0.5;4.39;-1.9
0;-90.45;-31.26;4.17;44.75;14.96;-20.07;-5.62;-173.35;-81.16;6.69;-17.32;30.1;-11.34;-14.21;4;72.18;2.56;8.11;-240.76;-28.31;82.97;0.52;0.27;0.76
0;89.8;49.18;4.13;182.33;98.11;-8.56;-7.39;-203.89;-81.23;4.07;329.78;12.59;-9.17;222.34;-6.88;92.89;3.3;6.22;-182.53;-18.5;142.04;-0.25;4.89;-2.26
0;-87.93;-40.55;2.5;50.82;17.8;-18.22;-4.01;-196.42;-95.08;5.26;12.25;25.64;-11.49;-22.56;6.53;94.47;2.1;7.1;-308.36;-18.59;171.46;-7.84;-0.03;1.03
0;88.77;54.22;4.32;191.36;114.49;-8.28;-8.44;-211.75;-96.08;5.77;322.18;13.24;-8.48;252.42;-0.55;117.79;3.95;6.83;-190.6;-18.56;239.46;-1.26;4.8;-2.23
0;-86.17;-38.53;2.34;48.6;17.83;-15.6;-4.84;-192.81;-91.03;3.94;-20.83;21.77;-11.46;-21.72;-3.7;87.73;2.28;5.94;-278.83;-19.39;122.84;-6.48;0.88;0.74
0;87.73;35.66;4.93;175.14;93.69;-8.18;-8.31;-182.68;-99.9;5.55;318.42;13.46;-8.95;183.77;-2.15;99.44;3.38;6.4;-217.83;-19.6;211.81;-0.24;4.59;-2.12
0;-85.87;-27.22;3.34;47.52;14.64;-7.54;-8.82;-184.16;-71.31;11.73;-29.29;16.43;-11.21;-15.67;6.91;65.1;3.79;5.65;-173.57;-23.01;97.98;-1.96;0.76;0.93
0;85.08;45.99;4.78;186.12;101.9;-11.46;-7.75;-200.33;-101.95;4.16;322.85;14.74;-9.06;220.97;-13.82;101.96;3.61;7.33;-233.84;-20.47;151.87;0.13;4.62;-2.77
0;-86.1;-32.36;3.46;50.2;16.68;-9.67;-6.05;-185.16;-84.1;4.79;6.39;20.37;-11.44;-14.61;13.85;76.62;2.63;5.58;-209.4;-25.48;128.98;-3.41;0.85;0.95
0;86.42;51.38;4.8;182.15;97.49;-12.64;-9.6;-185.69;-89.76;4.46;319.27;13.26;-8.71;211.08;6.49;114.37;3.67;6.9;-244.17;-19.42;182.4;-0.29;4.63;-2.56
0;-86.31;-27.31;1.96;47.95;16.42;-18.96;-5.94;-189.25;-61.26;3.72;-11.61;23.62;-11.42;-11.78;-1.1;94.65;2.44;7;-298.92;-17.08;81.01;-7.18;0.51;0.55
0;84.84;53.55;5.01;187.53;92.13;-9.02;-7.97;-188.81;-81.81;3.21;340.27;13.67;-9.23;204.61;-0.71;103.58;3.15;6.7;-247.03;-19.3;137.55;0.12;5.43;-2.39
0;-87.39;-35.89;2.58;46.88;11.53;-24.79;-2.8;-176;-66.93;6.57;52.94;28.24;-11.37;-23.95;4.34;86.86;2.23;7.79;-309.95;-19.53;161.64;-7.74;-0.09;1.36
0;88.25;47.3;4.57;177.41;93.69;-10.42;-8.53;-181.67;-91.98;5;323.39;14.52;-8.77;221.42;2.48;111.43;3.4;7.08;-222.51;-19.23;201.55;0.21;4.68;-2.25
0;-86.61;-30.3;3.56;47.05;15.19;-23.8;-6.47;-178.6;-81.9;4.8;7.59;34.08;-11.36;-10.58;0.88;95.38;2.53;9.04;-320.41;-26.81;92.64;-2.57;0.76;0.76
0;80.27;43.14;4.56;173.9;97.6;-9.65;-8.35;-183.53;-88.84;3.98;337.97;14.92;-9.27;235.63;-14.5;123.79;3.51;7.34;-263.56;-19.52;188.6;-0.99;4.32;-2.36
0;-85.16;-32.35;3.73;48.29;19.33;-4.87;-3.34;-184.78;-94.51;7.62;-21.4;12.98;-11.31;-11.78;7.17;61.74;2.32;4.73;-191.43;-24.14;127.4;-0.47;0.62;1.13
0;95.26;43.65;4.44;183.14;95.65;-7.37;-7.26;-196.76;-95.54;7.6;347.18;16.04;-9.17;199.93;2.74;88.6;3.93;6.49;-147.17;-20.67;163.57;-1.33;5.47;-2.14
0;-91.36;-34;2.27;48.43;13.35;-13.56;-4.36;-188.5;-76.05;4.87;19.9;21.45;-11.34;-20.89;9.08;74.6;2.19;5.9;-210.05;-21.03;116.97;-7.43;-0.09;1.33
0;88.82;51.53;5.37;179.26;93.47;-13.36;-13.08;-193.37;-101.56;5.23;343.51;17.38;-8.96;216.21;-18.2;132.03;4.25;7.86;-338.51;-20.59;183.9;2.34;4.65;-2.78
0;-87.73;-41.81;4.24;53.39;15.37;-17.52;-4.69;-186.16;-101.15;6.27;66.08;37.29;-11.63;-28.36;11.72;85.03;2.86;8.65;-262.38;-28.92;162.06;-1.76;-0.07;1.37
0;95.88;49.58;5.42;189.34;95.52;-10.45;-9.03;-192.4;-104.99;5.29;345.59;15.61;-8.99;216.01;-2.53;123.17;3.72;7.45;-231.62;-20.65;227.98;1.09;4.66;-2.59
0;-95.09;-41.8;3.19;50.37;17.18;-15.81;-6.15;-187.65;-95.36;10.22;15.37;26.03;-11.54;-23.44;17.48;86.91;2.9;6.4;-268.53;-22.78;184.72;-4.57;0.26;1.14
0;111.49;55.18;3.31;167.83;89.79;-8.76;-7.73;-180.98;-84.11;5.91;327.16;14.64;-8.8;197.88;-15.85;94.74;3.15;6.5;-173.76;-17.5;143.67;-2.32;5.6;-2.37
0;-89.57;-37.47;2.26;46.21;13.71;-12.32;-3.08;-186.27;-80.5;5.78;2.63;21.43;-11.53;-25.11;2.44;74.96;2.03;5.5;-245.09;-20.27;102.16;-8.03;-0.05;0.92
0;81.54;50.19;3.74;173.67;94.93;-9.35;-8.05;-182.35;-91.25;6.83;307.03;13.17;-8.88;194.61;4.02;114.69;3.87;6.31;-231.43;-18.75;169.85;-2.06;4.66;-2.27
0;-89.05;-35.24;3.1;43.79;13.34;-14.23;-5.16;-172.99;-83.46;5.08;15.65;27.79;-11.37;-24;6.73;83.1;2.36;6.41;-271.39;-24.32;114.37;-4.1;0.15;0.85
0;88.55;50;4.09;178.21;90.27;-9.46;-8.99;-195.91;-77.51;4.97;314.5;12.9;-9.17;193.05;-1.71;106.01;3.66;6.43;-231.29;-19.36;173.6;-1.61;5;-2.37
0;-89.89;-34.74;1.77;45.42;14.13;-8.26;-3.94;-183.67;-77.94;5.13;-18.13;17.04;-11.37;-20.74;-0.74;71.39;2.18;4.64;-227.2;-17.35;114.52;-7.98;0.37;0.93
0;90.03;45.93;4.3;179.2;96.76;-10.66;-9.09;-195.72;-92.02;4.11;327.42;14.71;-9.2;212.74;-7.14;106.95;3.49;6.89;-251.91;-19.27;184.55;-0.47;4.96;-2.34
0;-88.19;-36.99;1.43;43.2;12.98;-9.92;-4.23;-177.61;-74.7;5.34;-19.79;17.33;-11.29;-23.25;4.14;70.57;2.03;4.53;-209.46;-14.94;118.76;-7.68;0.41;0.99
0;88.18;42.51;4.37;174.83;94.4;-9.31;-8.66;-188.33;-98.27;5.07;318.87;13.89;-9;204.96;0.11;102.73;3.56;6.59;-237.48;-19.54;162.54;-0.4;4.63;-2.22
0;-91.13;-34.22;2.97;44.5;12.85;-10.19;-6.05;-175.07;-70.18;9.93;1.18;21.01;-11.31;-23.2;4.59;67.77;2.87;5.16;-222.29;-24.95;113.31;-5.49;0.48;1.11
0;84.18;47.64;4.49;177.06;93.2;-11.11;-8.62;-195.96;-92.75;3.85;323.32;14.51;-9.08;202.83;-2.63;114.31;3.43;7.2;-252.44;-19.19;165.9;-0.61;4.24;-2.4
0;-100.27;-35.28;2.44;51.15;14.49;-12.06;-5.7;-197.31;-70.33;5.32;-4.58;23.71;-11.72;-20.43;14.46;85.13;2.53;6.09;-272.9;-20.68;137.79;-8.87;0.45;1.24
0;113.93;58.7;3.82;160.88;92.41;-11.85;-10.16;-167.85;-80.29;2.43;335.34;14.72;-8.35;209.99;-11.28;124.04;3.21;6.83;-290.17;-16.78;159.49;-0.88;5.98;-3.39
0;-88.01;-31.66;2.3;50.18;13.8;-14.07;-5.5;-189.96;-66.29;5.23;6.46;26.8;-11.5;-13.31;4.21;73.32;2.5;6.66;-237.54;-18.79;123.72;-6.56;0.1;0.89
0;90.04;50.72;4.87;178.91;92.62;-11.81;-9.45;-195.84;-87.92;4.66;332.66;15.01;-8.8;208.08;0.43;116.71;3.84;7.21;-257.13;-19.24;181.52;0.57;4.91;-2.91
0;-88.99;-31.74;3.03;47.81;12.13;-12.58;-4.97;-177.36;-71.1;4.95;26.29;22.85;-11.55;-13.92;-0.61;74.58;2.3;6.19;-223.26;-24.34;80.8;-7.41;0.3;1.26
0;84.32;48.82;4.05;178.3;84.15;-10.23;-8.06;-189.23;-94.46;4.16;308.5;15.16;-8.65;185.63;6.9;107.68;3.29;6.2;-253.05;-16.99;141.73;-0.21;4.57;-2.13
0;-99.99;-39.39;2.57;54.21;17.79;-20.69;-5.33;-206.53;-82.73;6.59;9.41;29.57;-11.83;-21.75;3.12;92.13;2.85;8.37;-301.27;-20.98;96.47;-8.62;-0.08;1.31
0;95.29;53.13;5.75;193.41;99.66;-13.54;-9.24;-219.8;-92.73;3.03;364.74;16.27;-9.15;216.11;-7.97;113.93;3.98;7.91;-259.56;-22.48;151.66;1.78;5.5;-3.12
0;-90.15;-35.23;2.12;53.97;16.54;-12.12;-4.65;-203.3;-80.54;6.85;7.39;20.99;-11.5;-19.25;1.31;76.42;2.68;6.12;-215.55;-19.21;112.33;-7.27;-0.19;1.49
0;97.97;54.48;4.72;192.72;101.09;-7.99;-9.81;-211.93;-85.39;6.21;337.07;15.03;-8.83;225.74;6.38;119.16;4.12;6.96;-246.54;-19.93;169.04;-0.72;5.62;-2.7
0;-97.38;-41.45;2.42;52.87;17.15;-14.16;-4.16;-203.37;-90.41;6.07;-7.41;19.9;-11.88;-24.87;-6.51;88.43;2.87;6.64;-273.55;-19.81;92.2;-6.88;0.17;1.02
0;89;52.47;5.11;190.88;99.68;-13.52;-8.68;-208.22;-89.74;5.84;356.52;17.08;-9.33;211.81;9.61;122.17;3.79;8.05;-246.34;-19.35;185.15;1.81;5.32;-2.7
0;-105.79;-39.68;3.59;55.79;15.46;-17.21;-5.56;-211.71;-74.47;7.31;47.82;28.98;-12;-14.38;5.86;86.57;2.82;7.22;-274.65;-25.59;115.68;-4.35;-0.86;1.84
0;122.18;57.84;4.25;187.57;89.44;-13.44;-7.03;-214.39;-94.09;3.59;351.89;16.72;-8.62;196.59;-12.67;126.19;3.39;8.01;-248.03;-17.45;216.03;0.55;5.66;-2.96
0;-98.61;-40.68;2.71;52.85;15.06;-13.64;-6.86;-196.1;-86.09;6;-4.22;27.82;-11.76;-24.74;-1.04;77.46;3.22;7.25;-290.79;-21.9;74.95;-6.57;0.26;1.47
0;85.06;44.48;5.32;184.07;94.58;-11.45;-6.78;-192.96;-102.91;5.68;335.51;15.18;-9.33;192.48;4.53;113.87;3.29;6.82;-220.42;-20.68;159.39;2.39;5.06;-2.67
0;-92.03;-34.83;3.03;53.11;12.64;-7.5;-4.44;-195.2;-73.75;6.65;-0.03;20.28;-11.68;-18.62;4.37;69.32;2.72;5.95;-183.72;-21.86;112.28;-4.46;0.18;1.31
0;96.78;46.92;5.48;192.68;92.77;-10.77;-7.32;-212.77;-97.18;4.83;360.91;17.98;-9.18;213.97;6.84;118.96;3.71;8.01;-230.88;-19.13;196.05;2.93;5.09;-2.82
0;-95.19;-35.39;2.34;53.86;13.36;-16.17;-7.18;-203.44;-79.05;6.59;-7.47;20.4;-11.76;-21.03;-7.14;90.35;3.34;7.26;-278.52;-19.68;75.18;-6.68;0.01;1.29
0;90.31;46.3;5.64;197.92;104.61;-9.57;-7.88;-214.79;-112.09;5.52;362.84;15.46;-8.83;222.18;-0.47;96.4;3.74;7.18;-182.29;-20.5;177.4;3.05;5.3;-2.7
0;-90.08;-29.86;3.31;53.79;16.73;-11.78;-4.34;-191;-94.21;5.84;-11.56;28.86;-11.62;-6.62;5.13;65.82;2.31;7.61;-182.33;-23.82;91.03;-5.07;0.61;0.93
0;96.45;44.99;4.77;199.95;93.28;-11.63;-8.45;-213.16;-108.04;4.8;359.55;16.43;-9.06;205.33;-5.99;126.62;4.07;7.62;-256.94;-19.58;204.34;-0.24;4.76;-2.4
0;-97.34;-37.72;3.71;56.04;15.05;-9.92;-5.38;-197.95;-88.48;6.06;40.83;26.02;-11.88;-23.68;5.49;81.3;2.91;7.01;-281.91;-26.98;82.49;-5.36;0.55;1.36
0;86.47;43.74;5.25;193.73;92.71;-11.75;-7.26;-208.51;-95.91;5.09;345.89;16.74;-9.06;205.49;-2.89;109.9;3.82;7.38;-223.42;-20.77;153.48;2.78;4.73;-2.54
0;-87.76;-35.05;2.77;52.43;14.48;-8.98;-5.35;-182.47;-84.83;6.46;14.5;23.3;-11.52;-15.28;1.4;87.86;2.67;6.56;-248.02;-19.39;107.72;-4.98;0.96;1.08
0;89.57;50.84;4.31;188.37;100.57;-9.47;-7.47;-213;-106.78;5.71;323.63;13.87;-9.09;216.79;9.41;112.42;3.15;6.77;-218.7;-18.66;169.8;-0.98;5.15;-2.66
0;-98.6;-37.88;2.9;53.9;17.21;-15.44;-6.52;-194.88;-89.46;9.68;9.84;26.1;-11.82;-22.17;-3.86;90.28;3.29;7.57;-285.59;-22.38;89.01;-7.13;0.41;1.36
0;86.93;50.34;5.75;196.78;106.21;-7.02;-7.28;-217.3;-108.48;4.92;337.04;13.01;-8.81;236.9;1.59;101.06;3.32;6.73;-205.85;-22.22;167.7;2.99;4.8;-2.55
0;-90.67;-35.98;2.3;55.13;16.4;-8.22;-5.3;-207.55;-88.49;5.72;-23.04;20.54;-11.67;-19.14;-5.2;106.76;2.77;7.4;-300.84;-17.99;107.39;-5.76;0.65;1
0;95.22;38.69;5.36;194.66;90.24;-8.6;-7.41;-197.35;-108.04;4.87;361.87;14.48;-8.68;183.82;2.35;110.15;3.42;6.7;-207.2;-20.66;220.29;1.58;5.07;-2.4
0;-95.2;-31.77;4.6;53.46;15.09;-7.88;-6.38;-189.06;-93.45;8.5;-4.03;19.06;-11.81;-7.19;2.98;79.99;3.28;7.42;-189.86;-27.49;109.51;-1.13;0.52;1.29
0;91.65;38.27;5.15;183.12;84.85;-10.37;-9.3;-205.08;-128.7;4.38;338.22;16.38;-8.65;186.77;-7.95;101.87;3.86;7.05;-223.65;-19.11;144.92;2.37;4.7;-2.87
0;-95.91;-31.18;4.49;53.12;18.5;-7.73;-8.2;-192.23;-117.41;9.95;-8.2;23.3;-11.79;-11.38;9.09;64.11;3.62;6.32;-199.25;-29.95;79.52;-1.59;0.94;1.08
0;90.6;46.08;5.77;197.3;100.47;-12.33;-9.27;-208.98;-128.67;4.46;364.01;16.1;-9.11;220.43;-12.35;110.09;3.64;7.47;-257.12;-21.17;167.61;2.3;4.88;-2.85
0;-90.81;-37.6;3.38;56.75;17.07;-6.82;-5.54;-195.63;-85.89;8.65;-5.27;17.43;-11.56;-15.82;12.02;79.83;3.17;6.95;-179.79;-24.26;135.05;-4.16;0.64;1.33
0;99.03;57.64;5.33;194.56;104.98;-10.52;-8.91;-201.19;-94.17;5.52;343.13;14.28;-8.89;233.19;7.79;117.78;3.99;7.02;-235.47;-21.2;172.02;1.42;5.06;-2.55
0;-96.09;-44.69;2.12;53.84;15.82;-13.03;-5.44;-200.43;-86.73;6.55;5.82;21.18;-11.7;-23.54;-3.82;111.08;2.93;7.32;-341.09;-18.13;99.36;-8.61;0.24;1.27
0;89.99;44.88;5.47;193.44;99.3;-12.76;-8.11;-209.15;-99.19;6.44;347.97;14.26;-9.34;212.45;0.91;101.97;3.7;7.08;-196.98;-21.46;165.48;1.9;4.38;-2.06
0;-94.67;-38.35;2.79;53.19;16.32;-14.37;-6.29;-202.77;-79.12;7.27;-14.49;20.15;-11.52;-21.88;-4.33;84.56;3.27;6.66;-253.29;-21.5;77.83;-6.07;0.55;1.32
0;92.01;42.39;4.7;188.57;93.69;-8.83;-6.74;-199.8;-96.8;5.39;348.29;15.13;-9.14;192.5;5.82;97.33;3.5;6.8;-182.48;-18.56;159.9;0.71;4.69;-2.19
0;-93.42;-34.22;2.61;53.98;18.63;-7.69;-5.57;-201.9;-87.3;9.49;-15.69;16.33;-11.61;-15.67;2.1;75.92;3.2;6;-221.75;-20.69;89.34;-5.16;0.8;1.37
0;91.9;50.96;5.88;191.98;103.19;-9.59;-7.7;-205.88;-112.96;4.56;339.46;15.13;-8.93;235.78;-2.76;111.01;3.43;6.89;-210.84;-21.65;183.88;2.9;4.82;-2.87
0;-96.64;-31.08;4.01;50.91;15.45;-7.18;-7.87;-187.58;-98.61;10.3;-24.83;16;-11.58;-11.52;9.64;71.65;3.55;6.17;-183.21;-28.02;100.2;-3;0.77;1.1
0;92.43;51.56;4.79;202.28;97.65;-8.33;-8.78;-207.81;-85.35;4.64;369.33;13.64;-9.02;218.03;-2.32;111.1;3.56;6.75;-228.84;-19.07;199.13;-0.85;5.06;-2.4
0;-93.85;-37.81;2.39;50.33;17.46;-8.2;-4.24;-199.66;-81.32;6.56;-32.41;16.89;-11.8;-18.33;-6.22;81.28;2.82;5.45;-268.59;-18.94;92.24;-7.57;0.74;0.92
0;94.76;51.34;5.47;203.15;103.15;-9.47;-6.71;-230.01;-102.95;6.45;366.15;14.49;-9.44;219.4;8.96;109.45;3.63;6.86;-213.24;-21.12;160.91;1.5;4.95;-2.37
0;-96.49;-38.17;2.06;49.39;18.49;-12;-4.06;-194.19;-79.89;6.46;-26.93;21.69;-11.67;-18.96;3.24;74.72;2.39;6.56;-234.15;-19.13;95.26;-8.26;0.62;0.9
0;102.4;55;5.08;190.94;103.18;-9.79;-7.5;-206.04;-77.83;3.58;360.04;14.69;-9.39;233.66;-2.82;105.31;3.25;6.97;-214.7;-21.61;170.24;0.68;5.42;-2.72
0;-93.2;-35.61;2.55;49.7;13.97;-5.96;-3.92;-186.24;-72.98;4.92;1.89;12.94;-11.58;-22.43;2.46;81.66;2.59;5.19;-233.81;-20.96;79.61;-6.84;0.72;0.75
0;87.29;49.06;5;195.78;97.3;-10.05;-7.61;-199.18;-106.43;5.31;349.8;13.05;-9.13;201.5;1.03;117.15;3.92;6.6;-281.28;-20.74;180.89;-0.1;4.03;-2.39
0;-95.67;-36.69;3.26;48.5;15.83;-9.52;-5.98;-178.11;-98.14;6;14.61;31.94;-11.55;-19.84;4.45;82.27;2.48;7.35;-320.05;-23.81;91.92;-5.36;1.5;0.68
0;88.75;46.89;4.31;187.88;95.51;-7.78;-7.23;-200.19;-96.88;4.22;341.07;12.43;-9.24;201.16;2.92;95.99;3.06;6.04;-200.53;-18.16;141.92;-1.84;4.93;-2.47
0;-94.77;-35.32;2.21;54.3;14.66;-8.42;-3.33;-203.33;-72.9;6.97;9.4;16.11;-11.75;-20.34;-2.16;88.15;2.53;6.01;-256.23;-18.27;77.77;-7.59;0.11;1.28
0;90.56;53.87;5.78;201.68;109.37;-14.65;-8.93;-205.35;-113.03;7.2;355.98;17.53;-8.81;244.63;-3.37;109.14;3.66;7.81;-233.75;-20.47;182.73;2.75;4.71;-2.8
0;-92.02;-39.44;2.27;52.15;16.63;-16.9;-4.66;-187.02;-92.21;6.4;-16.7;30.96;-11.71;-23.04;6.25;98.12;2.84;7.81;-346.02;-20.01;114.52;-8.69;0.81;0.74
0;92.55;47.28;5.17;198.14;102.96;-11.19;-8.1;-197.97;-83.76;5.93;358.96;14.73;-9.42;230.07;-8.5;114.86;3.56;7.25;-232.43;-20.65;153.85;0.58;4.95;-2.79
0;-93.05;-42.53;2.71;49.98;14.63;-8.48;-5.18;-198.61;-85.22;11.36;-16.6;13.54;-11.79;-28.04;2.76;77.3;3.87;5.38;-240.06;-21.97;107.99;-8.5;0.52;1.29
0;87.05;47.04;4.76;194.11;98.67;-10;-8.09;-204.31;-93.18;7.85;341.54;14.34;-9.36;206.16;5.6;109.62;3.68;6.9;-220.99;-19.95;175.47;0.21;4.62;-2.25
0;-94.25;-37.1;2.31;52.75;11.69;-11.13;-3.94;-189.15;-66.94;5.96;-6.62;28.39;-11.57;-19.32;5.9;80.76;2.26;7.25;-280.04;-19.88;105.81;-7.31;0.81;1.03
0;88.54;50.62;4.8;193.33;102.22;-12.13;-8.54;-223.28;-108.13;5.72;349.65;15.06;-9.26;223.46;-3.41;120.94;3.74;7.43;-259.19;-19.04;163.74;-0.54;5.35;-2.9
0;-91.25;-34.24;2.37;49.86;12.29;-14.68;-6.04;-182.11;-80.66;8.46;13.38;23.63;-11.58;-22.32;7.38;74.62;2.93;6.49;-227.15;-20.61;76.95;-7.72;0.49;0.81
0;91.3;53.56;5.4;198.21;93.03;-12.66;-9.28;-194.79;-83.19;7.03;383.12;21.44;-9.55;238.74;-3.41;151.82;4.51;9.25;-307.42;-20.5;237.4;2.57;4.28;-2.53
0;-94.68;-45.36;2.79;50.41;14.5;-16.01;-5.85;-203.81;-86.79;9.86;1.61;29.31;-11.79;-24.02;-2.38;92.91;3.78;7.98;-339.55;-21.8;94.69;-5.62;0.4;1.1
0;88.69;46.52;5;192.73;105.43;-10.93;-7.73;-214.53;-110.2;6.65;343.22;14.52;-9.38;230.5;12.51;106.54;3.67;6.96;-212.03;-20.65;167.24;0.5;5.9;-2.75
0;-94.31;-32.17;1.8;50.91;15.15;-12.46;-5.17;-187.75;-72.8;9.74;17.35;17.53;-11.29;-10.86;-4.14;66.76;3.02;5.32;-213.1;-17.35;72.33;-7.23;-0.11;1.21
0;88.42;54.18;5;192.78;103.84;-10.18;-7.21;-198.5;-79.87;6.04;341.29;15.23;-9.8;228.53;1.39;122.31;3.53;7.18;-228.75;-20.9;179.78;-0.17;5.26;-2.88
0;-91.01;-38.26;2.82;48.13;12.65;-9.92;-8.09;-179.34;-68.9;10;-3.63;17.23;-11.59;-21.09;1.41;73.54;3.57;5.33;-226.42;-20.27;77.56;-6;0.88;1.01
0;90.64;50.42;4.97;189.39;98.02;-11.1;-9.22;-190.49;-75.42;5.49;356.05;14.34;-9.69;221.45;3.2;110.71;3.45;7.26;-236.48;-20.58;154.94;-0.99;5.22;-2.75
0;-88.43;-38.65;2.15;49.05;10.85;-9.3;-4.6;-185.44;-72.41;7.59;11.2;19.38;-11.79;-27.89;-5.41;93.81;3.01;6.36;-282.35;-18.38;115.38;-8.24;0.64;1.05
0;82.18;51.48;5.12;198.41;103.19;-12.32;-7.82;-230.5;-104.75;7.95;338.28;15.63;-9.24;226.68;9.84;114.19;4.06;7.53;-221.21;-20.69;157.43;1.84;4.42;-2.49
0;-99.1;-37.24;2.92;58.87;14.64;-14.23;-4.7;-199.73;-85.87;6.62;9.44;27.57;-12.18;-15.91;9.14;90.45;2.85;7.8;-309.4;-20.13;90.64;-6.44;0.5;0.97
0;116.41;69.25;4.4;181.6;100.26;-8.74;-7.58;-211.94;-88.66;1.44;333.44;14.53;-8.35;234.87;-8.3;117.31;2.81;6.09;-207.01;-19.89;179.79;0.89;6.47;-3.5
0;-92.49;-38.42;2.25;47.62;12;-8.11;-5.49;-190.43;-71.06;8.76;6.4;15.59;-11.59;-24.21;1.6;67.3;3.18;5.14;-227.89;-17.41;57.84;-6.64;0.32;1.33
0;85.45;49.8;4.75;190.34;94.02;-11.34;-7.49;-216.7;-82.1;7.48;334.59;16.53;-9.76;208.84;6.76;109.85;3.94;7.61;-215.92;-19.29;165.6;0.74;4.75;-2.33
0;-89.59;-35.07;1.89;54.25;17.42;-14.44;-4.84;-186.78;-77.57;6.94;-22.24;29.88;-11.46;-16.25;-1.51;83.26;2.47;7.83;-294.66;-16.76;118;-6.92;0.84;0.82
0;84.87;46.35;4.87;185.53;109.43;-10.89;-8.28;-205.3;-107.52;5.08;325.28;15.31;-9.34;250.08;-6.16;117.12;3.39;7.04;-215.78;-19.44;166.6;0.43;5.33;-2.87
0;-97.67;-30.7;3.34;59.58;10.76;-8.08;-4.67;-207.92;-55.81;7.11;18.46;21.75;-11.89;-11.79;19.73;68.3;2.68;6.61;-203.51;-23.16;119.86;-6.09;0.04;1.42
0;109.57;58.28;5.11;176.57;88.74;-10.4;-8.04;-194.08;-78.03;2.92;350.15;15.16;-8.65;219.22;-20.4;127.16;3.19;7.37;-252.23;-20.35;170.52;0.93;5.86;-3.59
0;-88.97;-39.19;2.29;49.56;10.18;-6.96;-4.45;-178.33;-63.76;7.17;15.01;21.72;-11.66;-28.52;11.94;79.39;2.78;5.82;-290.48;-20.41;82.79;-7.85;0.82;1.17
0;86.58;58;4.98;189.22;109.73;-10.78;-8.23;-204.2;-89.13;7.9;318.05;14.76;-9.54;243.32;-1.17;119.14;3.91;7.14;-222.53;-19.89;225.62;2.07;4.86;-2.66
0;-96;-40.32;2.53;45.65;12.24;-8.13;-5.31;-178.78;-72.43;8.64;-15.83;14.71;-11.69;-23.12;5.2;72.48;3.03;5.1;-245.93;-19.35;94.91;-5.6;0.43;1.32
0;84.71;41.4;4.87;195.33;108.41;-11.3;-7.14;-221.71;-119.37;6.36;369.83;14.86;-9.57;245.74;-8.91;108.91;3.54;7.5;-225.38;-19.35;170.35;-0.21;4.94;-2.64
0;-97.79;-38.69;3.11;58.64;16.04;-9.18;-6.53;-202.87;-77.37;11.84;-13.99;15.16;-12.08;-17.28;17.53;79.47;3.82;6.23;-196.16;-21.35;131.52;-6.03;0.26;1.31
0;114.96;65.71;5.36;183.61;105.99;-10.55;-7.99;-237.72;-122.56;4.7;342.74;15.78;-8.55;234.91;-8.82;114.77;3.45;6.81;-211.92;-21.99;171.81;1.75;5.65;-3.27
0;-101.9;-38.78;2.71;56.39;16.61;-12.3;-5.29;-209.9;-72.66;8.61;-23.37;18.91;-11.84;-22.94;9.6;80.63;3.21;6.81;-237.26;-21.17;69.32;-6.71;0.39;1.17
0;106.66;56.13;5.22;183.08;104.18;-10.25;-8.05;-228.58;-115.99;3.1;354.76;16.7;-8.66;239.28;-19.2;122.69;3.31;7.22;-229.23;-20.01;173.14;1.61;5.76;-2.99
0;-87.58;-33.91;3.54;58.58;16.02;-8.37;-7.19;-210.81;-80.47;7.82;19.03;17.12;-11.89;-10.93;7.16;60.51;3.16;6.23;-213.55;-22.73;76.98;-3.49;0.51;1.26
0;92.07;51.07;6.42;199.97;106.08;-10.07;-8.36;-207.45;-97.24;7.64;362.18;18.94;-9.02;241.6;5.66;115.79;4.03;8.05;-247.97;-22.79;180.74;4.11;4.92;-2.48
0;-93.89;-38.09;2.46;47.37;13.8;-8.44;-5.23;-189.46;-76.92;6.5;-27.29;16.98;-11.72;-21.2;1.87;76.51;2.68;5.44;-245.9;-17.82;77.95;-7.24;0.98;0.93
0;92.48;50.55;5.23;200.18;104.05;-10.15;-9.9;-219.38;-121.67;6.44;357.25;14.92;-9.25;226.21;-4.92;107.05;3.8;6.81;-244.45;-20.42;157.54;0.22;5.05;-2.8
0;-92.87;-36.41;2.77;52.43;14.51;-7.57;-5.99;-193.34;-86.61;7.3;13.69;16.82;-11.6;-21.96;9.03;74.47;3.01;6.22;-198.44;-21.69;96.72;-7.19;0.59;1.04
0;81.69;48.52;5.91;189.6;97.12;-10.97;-9.32;-203.64;-105.06;5.43;343.59;15.51;-9.17;224.18;-3.04;124.63;3.84;7.35;-262.74;-21.77;167.79;2.37;5.01;-3.22
0;-88.77;-33.63;3.38;52.44;10.87;-8.74;-4.44;-191.06;-65.96;10;34.66;15.88;-11.67;-16.39;11.95;74.32;3.04;5.68;-195.21;-24.2;95.51;-3.46;0.79;1.2
0;84.42;49.83;5.08;189.27;98.73;-12;-8.28;-201.38;-101.26;5.97;336.86;15.3;-9.26;216.75;2.99;117.99;3.8;7.2;-262.18;-20;157.47;0.5;4.89;-2.87
0;-87.19;-31.42;2.76;52.33;15.25;-6.77;-4.24;-193.58;-80.75;5.61;-6.03;17.32;-11.64;-14.9;-4.03;74.69;2.42;5.9;-187.67;-18.58;72.85;-5.12;0.9;0.97
0;90.44;43.07;5.78;201.79;98.98;-10.02;-7.54;-208.52;-95.96;5.09;386.62;14.58;-9.18;220.89;-0.33;100.64;3.45;6.66;-200.88;-22.31;159.07;1.89;4.77;-2.6
