label;gyro_z_avg;gyro_x_avg;acc_y_stdev;gyro_z_stdev;gyro_x_stdev;acc_x_min;acc_z_min;gyro_z_min;gyro_x_min;acc_z_max;gyro_z_max;acc_x_max;acc_y_avg;gyro_x_max;gyro_y_avg;gyro_y_stdev;acc_z_stdev;acc_x_stdev;gyro_y_min;acc_y_min;gyro_y_max;acc_y_max;acc_x_avg;acc_z_avg
0;-121.6;-31.64;4.13;50.94;7.53;-15.59;-5.01;-195.26;-49.82;11.99;36.19;23.26;-12.69;-18.08;-3.07;66.72;3.33;7.49;-184.86;-20.45;75.91;-4.76;0.98;0.94
0;-119.09;-35.24;4.19;61.08;18.89;-15.51;-10.53;-211.14;-83.16;17.44;85.55;30.03;-13.25;12.23;-4.22;99.88;5.05;8.88;-258.26;-19.38;214.79;-5.06;0.72;0.7
0;-43.56;-15.39;4.3;149.25;42.21;-12;-5.09;-175.84;-58;12.87;392.66;18.71;-11.16;145.13;7.89;71.42;3.8;7.41;-158.09;-22.95;128.61;-4.8;4.62;0.19
0;-122.43;-26.95;4.13;51.1;22.77;-19.67;-10.29;-201.96;-96.67;19.77;43.23;34.24;-12.98;30.59;-3.72;104.71;5.05;10.13;-305.58;-23.17;173.18;-5.79;0.43;1.05
0;-36.23;-13.65;4.76;181.49;45.84;-18.55;-6.67;-179.34;-56.47;13.61;500.17;29.37;-11.5;142.81;9.49;75.28;4.12;9.22;-109.34;-21.85;180.61;-2.25;4.59;0.39
0;-46.06;-14.57;4.23;157.85;33.11;-6.67;-7.87;-177.75;-49.49;15.39;393.67;23.07;-11.21;129.37;22.6;71.78;4.14;7.5;-131.21;-22.63;136.83;-3.99;4.37;0.33
0;-110.85;-21.57;4.67;38.09;13.24;-14.7;-5.7;-174.36;-55.38;10.98;20.6;18.53;-12.15;3.6;10.94;66.85;3.49;6.78;-171.17;-23.42;113.77;-5.01;2.23;0.85
0;-123.44;-28.36;3.9;47.97;12.01;-15.91;-6.41;-226.2;-50.28;11.65;10.16;21.09;-12.57;-8.96;0.2;69.82;3.37;7.05;-179.19;-19.09;135;-5.18;0.97;0.96
0;-33.56;-15.14;3.91;158.19;36.25;-6.88;-5.7;-165.16;-54.38;12.37;397.21;19.94;-11.2;129.14;11.66;77.54;3.76;7.13;-119.78;-20.64;153.99;-5.99;4.76;0.04
0;-127.48;-32.29;3.99;56.46;16.64;-14.2;-7.68;-221.99;-72.55;15.54;11.37;28.52;-13.17;8.96;2.21;85.57;4.35;8.79;-223.96;-20.45;171.98;-7.23;1.1;0.62
0;32.48;3.99;3.84;208.24;58.52;-9.95;-8.21;-193.38;-62.21;15.91;424.6;19.99;-10.33;121.92;10.06;77.38;4.4;7;-118.39;-21.5;159.67;-5.31;4.99;-0.11
0;-117.48;-28.79;4.16;52.6;10.86;-16.41;-5.94;-210.74;-53.61;13.42;36.7;21.65;-12.82;-11.78;3.74;68.89;3.55;7.28;-121.66;-22.73;147.22;-6.62;0.66;1.01
0;10.91;-1.05;4.79;215.42;55.57;-8.85;-7.48;-211.11;-70.21;14.87;465.46;25.62;-10.41;132.48;9.99;86.84;4.28;6.99;-182.39;-20.46;184.9;-0.31;5.49;0.18
0;53.34;33.44;5.55;237.29;57.38;-17.8;-6.54;-229.27;-45.2;3.43;366.73;17.18;-10.84;114.71;-0.76;97.24;2.56;9.14;-178.32;-17.73;224.69;2.97;2.67;-0.21
0;-78.99;-25.26;4.05;131.59;25.2;-12.44;-8.94;-215.09;-78.82;14.2;354.55;19.93;-11.89;82.32;8.69;68.72;3.89;7.64;-183.41;-18.78;158.99;-4.59;2.09;0.64
0;-7.03;-13.47;4.48;177.51;48.9;-8.85;-7.74;-201.46;-71.77;17.31;415.18;22.34;-10.75;130;-9.65;97.02;5.56;7.61;-231.89;-21.84;167.19;-3.37;5.94;-0.14
0;34.08;12.23;4.69;228.57;61.34;-15.02;-10.37;-242.37;-77.56;6.08;409.24;15.98;-10.29;146.6;16.23;59.63;2.92;7.84;-167.37;-17.52;132.62;0.72;4.2;-0.23
0;-86.62;-22.53;3.95;133.44;29.68;-15.51;-7.26;-251.01;-79.27;14.52;457.4;20.87;-12.62;89.54;9.89;81.58;4.09;8.65;-243.77;-20.82;140.84;-4.15;1.37;0.47
0;-119.06;-37.3;4.15;61.88;22.39;-17.15;-7.99;-220.76;-79.11;14.66;50.96;18.83;-13.26;42.54;-3.94;98.54;4.4;9;-269.92;-20.61;126.78;-6.38;0.63;0.65
0;-118.94;-29.14;3.95;57.37;18.87;-17.03;-8.39;-207.44;-75.15;15.47;26.44;19.21;-13.18;38.08;-15.45;102.65;4.4;9.03;-266.17;-20.43;158.41;-5.48;1.16;0.65
0;-127.7;-30.01;3.91;56.59;16.32;-17.49;-7.83;-222.76;-71.24;14.36;22.48;23.74;-13.21;10.38;-12.75;95.47;4.23;9.73;-226.54;-21.42;172.52;-5.6;1.48;0.4
0;-120.53;-22.75;3.77;53.62;24.48;-17.35;-10.02;-223.12;-73.78;18.06;36.05;27.52;-13.2;74.26;-18.14;110.94;5.26;9.68;-285.07;-21.08;157.34;-6.84;0.66;0.7
0;-120.06;-24.47;4.02;59;18.78;-15.46;-8;-233.75;-54.2;14.47;27.31;28.5;-13.23;57.16;-14.47;82.48;3.91;9.42;-202.13;-22.73;158.11;-7.04;1.63;0.82
0;-43.8;-9.55;4.14;168.87;33.81;-9.05;-3.76;-184.72;-54.59;13.44;432.39;24.36;-11.73;92.51;5.76;65.32;3.41;7.87;-165.36;-22.4;152.3;-5.25;4.18;0.68
0;-121.2;-18.76;4.14;60.41;28.75;-14.33;-6.58;-223.66;-72.86;15.34;99.66;14.68;-12.88;89.66;-10.95;85.11;4.5;7;-197.62;-22.01;167.47;-1.38;0.62;0.37
0;-53.78;-11.48;2.98;154.77;38.72;-15.68;-7.09;-206.28;-71.18;12.37;375.78;20.72;-11.34;110.97;10.38;68.92;3.68;9.29;-174.62;-20.12;130.46;-6.94;3.84;0.41
0;-43.51;-9.29;3.87;150.39;38.79;-6.04;-5.51;-179.97;-53.4;8.02;379.97;21.05;-11.17;135.06;12.54;66.85;2.78;7.42;-123.98;-18.72;169.31;-1.14;4.58;0.37
0;-75.75;-22.92;4.15;147.52;37.01;-12.81;-8.94;-239.98;-81.71;16.04;392.47;21.66;-12;111.47;-0.28;70.57;4.37;9.88;-229.3;-23.83;121.45;-4.4;2.85;0.6
0;-125.14;-25.65;3.18;66.49;18.21;-14.86;-7.98;-242.88;-69.95;12.7;39.56;17.92;-13.13;29.32;-7.55;68.18;4.04;8.33;-154.35;-18.86;115.05;-7.3;0.56;0.41
0;-123.57;-20.29;3.85;58.75;19.65;-15.67;-8.75;-229.57;-58.02;10.88;16.05;22.7;-13.32;63.22;-3.58;70.53;3.69;8.98;-194.88;-21.72;96.91;-5.84;0.36;0.39
0;-120.28;-20.96;3.94;66.42;25.15;-16.04;-7.57;-223.31;-60.2;15.39;76.79;21.16;-13.31;81.43;-12.44;81.92;4.46;7.61;-232.8;-19.42;110.39;-4.89;0.33;0.81
0;-122.75;-16.9;3.6;61.47;10.53;-10.41;-8.99;-219.94;-40.73;6.66;77.74;12.53;-13.05;7.66;-14.4;68.93;3.54;5.97;-199.01;-19.05;49.48;-5.31;0.47;0.44
0;-123.38;-12.51;3.75;55.17;26.2;-14.33;-7.46;-209.61;-63.3;13.9;41.27;24.79;-12.81;94.63;-21.25;108.19;4.15;9.07;-286.49;-21.01;113.89;-5.98;0.8;0.23
0;-31.7;-11.19;3.02;176.2;31.18;-9.81;-3.06;-181.12;-46.74;10.21;422;18.23;-11.34;81.84;11.45;58.41;2.63;7.11;-135.11;-18.62;121.57;-7.12;4.13;0.62
0;-41.37;-13.75;3.88;157.18;24.35;-8.6;-5.57;-185.99;-49.33;11.55;384.97;19.3;-11.24;94.41;12.91;53.8;2.92;7.92;-116.27;-20.58;113.79;-4.63;3.98;0.72
0;-123.85;-25.81;3.43;52.26;15.38;-18.84;-8.08;-215.33;-67.1;15.09;34.36;22.22;-12.83;6.21;-12.03;87.95;4.28;8.42;-229.96;-19.54;172;-6.91;0.94;0.58
0;-48.24;-13.06;3.57;162.3;34.62;-11.32;-5.22;-196.84;-66.31;14.83;418.39;17.38;-11.47;122.26;8.09;80.4;3.79;7.32;-203.24;-20.03;177.73;-6.49;3.39;0.68
0;-124.93;-23.03;3.96;56.78;21.92;-11.36;-6.86;-223.95;-66.91;17.58;7.46;20.12;-12.87;37.78;-12.41;82.38;4.57;8.06;-277.83;-20.89;129.64;-4.81;1.11;0.61
0;-124.43;-27.34;3.92;60.85;21.15;-16.68;-8.72;-234.45;-76.05;14.95;11.75;23.62;-12.82;20.55;-7.77;83.7;4.19;8.88;-266.87;-19.59;167.72;-3.42;1.06;0.49
0;-128.04;-26.96;3.81;55.26;16.89;-16.05;-6.69;-229.62;-65.5;15.04;4.66;23.46;-13.01;12.86;-2.64;71;3.91;8.85;-234.37;-19.9;134.78;-6.23;1.22;0.54
0;-115.67;-17.43;4.77;85.55;37.68;-16.01;-13.31;-241.05;-101.67;23.51;199.1;29.3;-12.55;96.19;-20.71;124.59;6.4;10.08;-383.93;-21.09;228.08;1.56;0.99;0.6
0;-124.48;-27.34;3.71;56.4;19.39;-20.27;-10.91;-225.79;-86.28;18.29;24.63;32.56;-12.93;16.48;-12.47;101.2;5.27;10.43;-310.94;-19.27;203.74;-5.12;0.82;0.54
0;-123.67;-24.05;4.04;58.77;20.96;-15.2;-8.81;-218.95;-81.97;17.65;49.81;24.53;-12.75;50.81;-14.27;93.35;5.03;8.75;-272.35;-21.12;171.39;-3.54;0.66;0.39
0;-126.31;-22.83;3.73;58.29;19.63;-12.38;-9.38;-238.42;-67.05;14;28.17;19.6;-13.12;23.7;-16.49;90.42;4.45;7.7;-264.51;-19.12;108.46;-6.01;0.46;0.5
0;-127.16;-30.21;3.6;57.11;14.75;-11.33;-8.45;-238.62;-60.9;13.07;20.02;17.89;-13.09;13.9;-11.25;85.39;3.93;7.86;-259.53;-20.88;95.93;-7.29;0.9;0.57
0;-128.62;-20.62;3.83;57.14;18.53;-9.79;-9.53;-239.74;-58.35;14.14;31.23;15.79;-13.15;30.21;-16.54;80.29;4.08;7.11;-215.06;-22.13;117.52;-6.29;0.31;0.32
0;-127.04;-20.52;3.59;54.21;17.74;-13.37;-12.35;-232.6;-56.7;13.24;7.29;21.52;-12.9;25.71;-13.06;87.83;4.1;8.35;-235.55;-20.42;82.08;-6.44;0.34;0.23
0;-127.17;-19.13;3.8;53.16;15.9;-12.39;-9.78;-223.89;-54.93;12.18;30.57;13.88;-13.13;24.35;-19.62;94.66;3.97;7.34;-249.32;-20.74;128.62;-7.06;0.91;0.3
0;-128.39;-20.53;4.1;54.26;22.35;-15.98;-9.8;-227.98;-76.04;17.89;-0.87;30.17;-12.82;32.53;-15.46;101.67;5.15;9.74;-297.3;-21.31;142.42;-4.19;1.24;0.42
0;-125.65;-30.71;3.75;62.9;22.69;-11.56;-5.16;-233.33;-83.57;16.42;25.31;23.78;-12.57;30.86;-10.07;82.75;4.1;8.09;-304.87;-19.98;102.59;-5.61;0.94;0.79
0;-130.17;-27.5;3.88;57.1;16.02;-15.04;-8.74;-247.52;-77.88;15.49;17.76;21.04;-12.76;-3.4;-19.99;94.89;4.44;8.92;-256.27;-22.68;177.85;-5.32;1.54;0.56
0;-125.35;-23.99;4.06;59.7;22.55;-17.1;-9.36;-243.55;-77.04;17.38;3.7;24.74;-12.92;53.7;-11.5;102.46;4.98;9.78;-262.25;-20.94;141.4;-4.18;1;0.17
0;-116.76;-18.33;4.54;65.83;27.52;-14.1;-8.36;-223.92;-58.65;12.25;107;19.26;-12.72;77.99;-10.01;93.34;3.88;8.19;-268.83;-20.73;112.32;1.23;0.49;0.26
0;-124.32;-25.6;3.71;58.61;19.91;-13.64;-9.35;-220.92;-67.45;16.49;22.75;19.7;-13.06;58.83;-9.83;94.7;5.03;8.14;-282.6;-19.26;152.64;-5.69;0.28;0.43
0;-122.3;-23.55;3.78;52.88;19.53;-18.3;-7.98;-200.32;-77.6;15.04;8.95;28.69;-13.17;24.93;-12.82;103;4.39;9.74;-290.68;-20.37;164.12;-5.79;0.73;0.4
0;-121.29;-23.04;4.5;62.82;29.46;-14.33;-8.77;-220.44;-76.2;16.76;78.76;22.35;-12.7;100.51;-18.87;102.72;4.9;8.08;-258.91;-22.28;154.56;-3.55;0.75;0.47
0;-125.07;-23.58;3.45;61.14;22.27;-13.05;-8.38;-222.19;-72.29;17.72;43.51;20.44;-12.81;59.42;-13.88;104.17;5.08;8.2;-284.73;-18.9;193.63;-5.37;0.85;0.58
0;-54.43;-19.76;3.47;151.59;30.6;-14.35;-5.46;-209.47;-64.19;13.28;386.72;22.55;-11.57;98.61;9.68;72.67;3.57;8.89;-230.78;-18.99;104.11;-6.37;3.28;0.57
0;-1.42;-7.1;4.88;175.3;52.71;-12.65;-5.04;-174.48;-86.72;8.41;369.94;25.28;-10.74;119.06;2.72;69.86;2.78;8.45;-204.07;-21.39;132.61;2.75;5.06;0.27
0;93.16;20.45;5.05;262.22;60.79;-11.46;-9.28;-240.03;-63.43;4.94;445.97;18.12;-9.63;112.36;18.34;68.84;3.09;8.33;-170.1;-19.29;87.33;0.77;5.39;-0.32
0;-120.3;-20.89;3.97;53.76;10.52;-14;-4.17;-219.82;-52.49;12.75;31.93;15.31;-12.93;5.79;-2.07;66.3;3.25;6.93;-200.39;-20.33;123.42;-7.11;-0.05;1.32
0;-93.78;-30.08;4.91;34.97;20.18;-15.09;-6.91;-160;-69.34;17.02;-0.03;30.88;-12.28;20.13;-14.69;95.15;4.82;9.91;-296.19;-25.2;104.35;-3;2.16;0.82
0;-104.55;-23.24;4.41;32.53;19.05;-15.37;-6.97;-159.81;-66.15;15.29;8.15;30.03;-12.42;30.26;3.18;91.3;4.26;9.74;-278.49;-20.66;131.37;-4.25;1.66;0.78
0;-96.24;-26.8;3.57;44.55;13.82;-10.68;-5.59;-205.31;-58.24;13.41;53.08;26.37;-12.14;-1.35;-4.75;91.04;3.99;8.77;-247.35;-18.93;127.79;-6.78;2.33;0.51
0;-102.64;-25.19;3.82;41.49;21.24;-17.11;-5.55;-194.19;-74.28;13.54;31.11;23.55;-12.13;29.1;-0.84;105.64;4.1;8.88;-319.11;-19.59;138.33;-5.85;1.18;0.87
0;-93.5;-28.14;4.2;36.03;21.3;-14.65;-5.13;-162.23;-73.65;15.49;24.12;29.58;-12.1;29.17;-9.09;101.68;4.34;9.74;-315.16;-22.48;115.64;-5.16;1.76;0.7
0;-97.58;-28.12;4.09;36.85;22.72;-14.03;-4.56;-202.19;-73.82;14.07;10.7;29.04;-12.16;37.53;-7.29;103.94;4.07;9.44;-330.83;-20.47;96.41;-6;1.92;0.72
0;-108.47;-24.58;3.94;47.2;23.4;-15.18;-5.46;-234.04;-74.26;13.54;46.29;24.68;-12.11;38.35;-1.65;99.75;4.14;8.5;-308.63;-22.63;154.95;-5.56;2.23;0.96
0;-7.29;-14.11;4.69;170.95;33.94;-12.3;-5.14;-194.11;-79.47;15.24;387.58;23.27;-11.14;55.98;-11.13;86.51;4.52;8.94;-260.5;-19.91;134.43;-2.95;5.46;0.02
0;35.68;9.51;5.13;220.7;45.22;-12.77;-10.53;-221.14;-60.59;7.97;371.22;16.88;-10.36;133.28;21.42;115.15;3.36;7.46;-324.6;-21.04;167.66;-0.17;4.04;-0.08
0;-59.24;-18.18;4.06;156.22;34.33;-8.61;-9.22;-233.64;-64.2;15.71;383.11;27.01;-11.85;94.83;0.74;68.07;4.26;8.15;-246.14;-20.56;101.48;-1.76;2.92;0.59
0;-127.27;-25.55;3.85;57.83;18.51;-13.43;-7.09;-227.5;-77.17;15.71;36.45;22.13;-13.01;27.55;-13.46;100.35;4.32;8.02;-309.11;-21.51;148.54;-5.57;0.7;0.76
0;-22.48;-15.93;4.72;160.03;30.33;-15.67;-5.7;-197.94;-65.35;13.02;366.84;31.05;-11.24;55.56;-0.45;84.88;3.38;9.69;-295.07;-20.68;110.25;-1.53;4.33;0.36
0;-126.66;-22.43;3.86;54.36;19.47;-15.54;-7.38;-232.03;-73.02;17.72;1.08;26;-13;34;-19.23;88.19;4.33;9.16;-272.48;-21.87;113.01;-5.21;1.11;0.71
0;-128.38;-24.83;4.34;52.2;19.13;-12.72;-8.44;-227.76;-71.49;14.02;-40.77;30.18;-12.9;25.32;-13.22;65.09;3.81;8.88;-232.32;-23.31;59.05;-4.76;1.33;0.41
0;-33.72;-15.58;4.9;163.69;32.02;-18.69;-6.05;-229.75;-70.62;16.83;388.81;25.41;-11.6;71.05;5.11;89.27;4.27;9.07;-339.52;-21.06;106.9;-3.14;3.6;0.47
0;-124.49;-33.19;3.84;55.24;18.33;-12.08;-7.2;-244.96;-80.47;13.8;-15.57;24.67;-12.61;16.16;-13.05;87.4;3.89;8.67;-263.9;-21.71;77.25;-3.77;0.74;0.51
0;-128.41;-29.67;4.11;57.66;19.17;-14.16;-7.19;-245.48;-73.45;16.62;-9.4;24.94;-13.01;20.03;-15.21;93.32;4.57;8.86;-277.07;-22.51;141.4;-4.12;0.98;0.77
0;-130.24;-29.06;4.26;65.26;21.91;-14.43;-9.31;-271.38;-83.72;18.26;4.48;23.38;-12.91;28.43;-18.15;110.9;5.52;8.59;-342.69;-20.6;120.25;-4.39;-0.03;0.65
0;-124.32;-30.18;5.52;67.64;23.5;-12.27;-11.12;-253.72;-86.08;19.32;0.73;30.39;-13;18.5;1.49;93.72;5.25;9.94;-303.93;-28.98;148.73;2.45;0.58;0.46
0;-119.99;-32.03;3.76;58.92;20.42;-12.66;-6.83;-241.32;-85.61;12.55;32.19;31.25;-12.48;9.18;3.27;92;3.63;9.39;-324.21;-21.24;135.5;-2.41;1.05;0.61
0;-118.83;-29.16;5.62;61.47;23.19;-17.2;-8.88;-249.2;-102.44;16.2;-23.06;30.11;-13;8.07;-2.32;105.31;4.53;10;-341.53;-27.04;167.99;1.94;0.36;0.6
0;-123.04;-33.09;4.11;63.11;12.81;-15.47;-5.58;-238.59;-65.84;10.76;39.47;24.72;-13.19;-5.49;5.46;81.99;3.49;9.16;-253.4;-19.81;147.49;-6.38;0.54;0.24
0;-123.9;-36.7;3.28;59.63;10.71;-9.29;-9.06;-219.98;-58.76;13.26;28.17;21.35;-12.71;-9.51;4.86;71.34;4.36;7.27;-187.64;-19.27;116.62;-4.43;0.41;0.47
0;-125.21;-19.99;3.84;54.87;12.57;-14.82;-6.96;-216.21;-53.24;12.1;3.28;26.12;-13.13;3.21;-3.12;81.52;3.47;9.06;-256.33;-20.62;131.47;-6.06;-0.2;0.56
0;-28.33;-18.94;3.98;168.67;33.95;-13.77;-6.19;-193.52;-69.35;13.97;424.81;23.56;-11.55;54.17;-3.76;85.17;4.1;8.08;-265.44;-20.2;134.74;-2.88;3.91;0.16
0;-121.51;-29.43;4.3;57.71;18.67;-12.48;-6.45;-210.22;-75.34;14.81;48.75;28.32;-13.17;24.68;-8.82;104;3.8;8.88;-303.02;-23.08;128.78;-5.58;0.32;0.85
0;-124.42;-21.79;3.87;54.34;14.05;-16.33;-4.93;-227.97;-59.45;14.5;19.51;25;-13.13;11.32;-11.82;82.6;3.52;9.19;-219.54;-22.19;119.4;-6.08;0.78;0.9
0;-129.62;-28.96;4.33;53.06;16.27;-16.65;-7.95;-236.83;-70.55;15.17;-42.2;26.18;-13.09;4.73;-10.38;70.93;4.09;9.58;-197.12;-21.99;118.78;-5.02;1.6;0.67
0;-128.89;-20.05;4.09;52.75;10.15;-14.7;-6.55;-233.18;-43.39;9.77;-10.42;23.47;-12.98;4.64;-12.63;69.17;3.11;8.12;-172.93;-22.72;77.05;-7.2;1.22;0.56
0;-122.13;-24.63;6.52;68.76;22.94;-13.68;-13.74;-247.9;-86.75;12.93;-12.47;25.32;-12.83;26.11;-16.19;93.55;4.82;9.45;-246.73;-28.44;104.07;5.69;2.15;0.07
0;-125.15;-27.32;4.53;54.3;18.62;-15.1;-4.38;-244.11;-70.43;13.7;-31.18;28.61;-13.05;28.06;-4.77;76.8;3.31;8.85;-252.49;-23.72;104.69;-3.71;0.46;0.89
0;-30.01;-9.26;4.96;172.76;41.3;-13.03;-6.21;-205.15;-70.23;11.67;423.44;27.52;-11.25;127.17;5.67;66.17;3.47;8.8;-230.3;-24.75;73.07;-3.1;4.43;0.41
0;-127.44;-18.28;5.15;54.31;18.77;-12.48;-7.52;-232.5;-70.01;8.15;-20.72;29.25;-13.46;31.43;-5.18;84.83;3.04;8.81;-241.26;-26.01;80.87;-3.17;0.2;0.61
0;-123.3;-16.88;4.11;55.11;16.25;-15.23;-5.96;-236.51;-52.25;13.64;0.11;27.53;-12.89;28.54;-2.64;72.78;3.44;9.2;-226.76;-21.41;97.16;-5.4;0.16;0.97
0;-127.7;-31.69;3.92;60.41;18.61;-11.08;-9.17;-249.39;-68.58;12.86;-5.9;16.45;-12.96;8.03;-9.96;78.08;4.01;7.75;-201.91;-20.91;73.24;-5.02;0.71;0.59
0;-126.51;-31.85;4.06;59.72;22.66;-18.6;-7.13;-238.99;-88.68;15.71;13.14;30.67;-13.11;38.36;-5.58;100.52;4.16;10.08;-352.51;-19.05;145.87;-3.8;0.18;1.02
0;-123.59;-29.34;3.71;58.04;17.79;-10.48;-6.96;-228.57;-73.15;15.08;2.78;27.02;-12.7;11.77;-2.34;84.61;4.18;8.56;-282.12;-20.65;131.25;-3.64;0.67;0.65
0;-128.78;-27.12;3.6;58.32;17.99;-11.74;-6.35;-239.82;-65.95;13.23;-6.24;26.54;-12.9;16.22;-13.49;83.11;3.87;8.93;-275.86;-19.67;126.68;-4;0.69;0.46
0;-126.47;-27.51;4.1;51.16;22.85;-20.05;-9.27;-219.15;-86.36;15.68;10.22;29.24;-13.06;43.81;-10.13;115.38;4.9;9.7;-389.77;-21.24;136.35;-4.12;0.02;0.53
0;-126.47;-34.04;3.69;63.94;15.34;-22.23;-8.62;-239.84;-70.19;17.55;25.85;30.49;-13.18;-2.54;-5.65;99.18;4.77;10.72;-305.42;-19.58;143.1;-5.36;0.73;0.66
0;-124.18;-30.54;3.64;57.96;20.93;-18.24;-10.44;-243.03;-84.28;16.26;-10.12;30.55;-12.85;32.42;-13.31;105.3;5.05;10.44;-312.85;-20.21;160.67;-5.72;0.37;0.37
0;-126.49;-32.26;3.39;58.84;16.91;-14.2;-7.31;-234.43;-77.53;14.23;29.4;19.43;-13.01;5.91;-9.21;94.39;4.31;8.44;-260.56;-21.36;151.68;-7.2;0.65;0.73
0;-124.82;-25.53;5.94;66.92;25.2;-10.64;-11.06;-265.83;-66.92;11.56;68.53;20.76;-12.82;41.39;-18.65;88.64;4.14;8.67;-255.75;-28.41;100.53;-0.87;1.22;0.32
0;-127.92;-30.24;4.04;58.48;19.1;-14.67;-6.59;-251.17;-85.98;18.65;35.04;22.39;-13.34;9.95;-9.65;97.79;4.72;8.33;-295.04;-22.88;157.92;-6.84;-0.19;0.97
0;-130.76;-28.5;4.01;60.46;20.73;-20.7;-8.95;-245.06;-83.28;19.76;8.35;30.59;-13.22;34.07;-14.86;107.39;5.25;10.57;-318.78;-21.97;179.94;-5.64;0.78;0.78
0;-130.74;-27.95;4.67;62.27;19.86;-12.89;-8.21;-253.1;-75.75;13.26;-1.32;30.29;-13.43;26.06;-16.93;99.86;4.32;9.74;-292.16;-22.98;86.72;-3.84;0.69;0.53
0;-128.3;-28.75;5.05;59.29;19.36;-13.34;-7.73;-247.45;-88.57;15.77;-14.81;31.85;-12.89;21.93;-19.23;103.86;4.6;9.76;-308.28;-23.81;92.2;-2.46;0.67;0.41
0;-132.58;-27.19;5.37;58.16;22.15;-14.52;-9.06;-248.97;-81.09;15.62;-38.11;30.39;-13.16;20.32;-10.73;73.39;4.65;9.55;-244.4;-25.34;96.35;-3.05;1.31;0.5
0;-133.13;-21.26;5.03;54.05;22.38;-14.23;-9.2;-240.56;-82.66;19.25;-4.67;25.69;-13.16;43.55;-18.97;98.97;5.43;9.05;-319.4;-22.66;146.2;-3.45;0.68;0.04
0;-129.74;-21.19;4.69;56.87;21.24;-15;-10.45;-244.19;-85.93;9.84;6.65;26.54;-13.54;33.62;-10.62;107.13;3.69;9.48;-284.33;-24.06;131.23;-5.55;-0.09;0.64
0;-129.76;-24.38;4.92;53.58;18.76;-13.03;-8;-242.06;-84.71;9.85;-35.95;33.72;-13.42;17.87;-10.05;86.99;3.59;9.7;-258.18;-25.13;73.29;-5.25;0.64;0.54
0;-129.23;-25.42;5.13;59.67;20.71;-13.19;-8.22;-238.49;-78.23;14.15;-7.35;33.3;-13.25;20.14;-5.21;88.25;4.2;10.25;-282.05;-25.32;89.46;-1.64;1.08;0.12
0;-127.32;-27.1;4.07;62.08;21.92;-18.81;-9.1;-233.76;-77.23;17.3;18.86;36.74;-13.08;37.92;-9.36;103.16;4.9;11.32;-340.84;-20.09;120.87;-3.01;0.35;0.51
0;-132.7;-28.93;4.36;57.9;16.63;-11.44;-6.71;-253.29;-64.89;11.56;-13.66;21.55;-13.11;9.64;-12.24;78.93;3.57;7.92;-217.85;-22.69;67.39;-5.1;0.67;0.29
0;-128.3;-32.62;3.68;61.49;28.56;-12.46;-8.1;-249.37;-88.91;14.14;1.44;26.09;-13.06;47.8;-7.58;110.89;4.36;8.79;-376.98;-20.67;93.81;-5.74;0.81;0.37
0;-128.1;-29.75;4.27;60.81;21.78;-17.39;-6.47;-250.22;-88.07;15.09;23.12;32.56;-13.12;29.19;-8.58;105.19;4.28;9.88;-361.21;-21.32;116.33;-3.92;0.1;0.6
0;-128.55;-21.1;4.19;55.77;18.18;-13.43;-10.01;-235.51;-61.02;14.63;-10.97;29.01;-13;38.82;-18.61;98.17;4.4;9.98;-278.77;-22.65;81.58;-2.59;0.5;0.08
0;-128.01;-26.47;3.71;57.67;20.23;-16.13;-7.73;-236.09;-80.81;13.09;3.95;24.67;-13.14;22.99;-4.79;96.54;4.02;9.19;-266.19;-19.89;155.46;-5.93;0.69;0.62
0;-127.84;-24.75;4.42;59.76;18.29;-15.89;-10.69;-240.08;-70.58;12.99;2.44;25.24;-13;21.83;-16.46;97.85;4.33;9.22;-251.64;-22.43;96.44;-3.39;0.03;0.57
0;-132.69;-24.85;5.36;69.38;36.06;-18.39;-8.71;-265.45;-78.35;14.15;19.14;31.58;-13.18;102.08;-15.66;112.29;4.7;10.84;-327.62;-27.85;125.52;-2.27;0.77;0.25
0;-30.31;-20.83;5.63;176.94;37.58;-16.2;-9.83;-267.65;-81.68;14.07;418.89;25.24;-11.36;68.83;4.58;104.35;4.54;9.67;-337.61;-25.15;158.06;1.62;3.65;0.15
0;-126.59;-30.41;5.49;62.22;20.03;-17.81;-6.01;-241.65;-74.37;15.39;32.9;25.29;-12.56;36.55;-8.69;79.35;4.07;8.94;-266.45;-24.94;82.1;-1.32;1.25;0.62
0;-124.58;-21;4.73;53.69;19.09;-11.73;-5.51;-222.48;-64.78;15.25;2.98;27.2;-13.19;44.71;-12.21;74.61;3.92;8.55;-259.04;-23.38;75.1;-4.04;1.24;0.99
0;-131.94;-18.46;5.02;54.74;20.01;-12.36;-9.1;-255.64;-63.9;13.97;-7.27;21.7;-13.45;42.56;-19.61;89.83;3.92;7.99;-250.78;-23.95;70.78;-4.59;0.74;0.75
1;-70.27;-22.85;7.73;136.38;36.24;-12.18;-18.82;-220.96;-134.23;17.91;334.77;37.11;-11.07;37.65;10.93;118.18;5.93;9.9;-387.8;-29.41;292.67;2.55;3.47;-0.65
1;-79.75;-19.82;7.49;121.77;35.23;-15.39;-16.64;-222.86;-135.49;19.25;297.13;37.38;-11.23;38.77;11.05;123.07;5.88;10.43;-366.39;-27.9;294.83;2.99;3.48;-0.64
1;-79.43;-26.05;7.68;118.37;33.29;-16.49;-19.3;-214.33;-137.48;18.46;286.89;38.11;-11.22;47.06;8.18;129.09;5.81;10.3;-446.66;-32.46;277.08;2.84;3.41;-0.63
1;-64.09;-24.26;7.96;145.95;30.99;-13.14;-17.19;-218.52;-132.66;16.77;362.2;38.68;-10.99;33.64;3.33;112.4;5.16;9.77;-405.9;-33.22;248.07;2.13;3.3;-0.56
1;-64.96;-22.01;9.01;140.52;35.63;-14.48;-20.11;-218.91;-153.43;18.67;334.92;36;-10.81;38;13.62;134.56;5.82;10.19;-427.56;-35.39;272.62;4.38;3.57;-0.72
1;-71.88;-21.2;9.08;122.33;36.42;-24.19;-20.36;-207.68;-158.76;16.38;295.45;37.39;-10.72;55.06;7.31;140.69;6.02;11.1;-459.76;-32.28;242.55;8.44;3.4;-0.93
1;-82.9;-18.89;6.79;128.4;45.73;-16.23;-17.05;-216.44;-141.35;16.82;372.36;38.42;-12.82;93.83;-0.02;117.05;5.47;10.44;-385.88;-30.99;289.54;1.63;3.27;-0.7
1;-70.29;-14.7;8.37;139.67;35.73;-15.7;-15.63;-234.27;-135.88;20.08;351.46;35.49;-10.74;41.45;6.79;121.05;5.73;10.37;-368.07;-33.51;262.19;2.93;3.44;-0.75
1;-62.94;-22.41;7.78;147.74;35.21;-15.59;-16.66;-215.25;-133.04;16.32;378.31;38.67;-10.84;27.1;14.83;124.56;5.3;10.41;-393.29;-26.68;293.02;5.44;3.23;-0.92
1;-67.88;-26.42;7.54;144.4;34.64;-13.7;-14.28;-235.19;-157.17;16.4;361.63;35.58;-10.87;34.25;6.52;127.78;5.35;10.07;-431.23;-23.92;272.12;3.29;3.52;-0.46
1;-80.87;-26.81;7.5;113.95;34.68;-18.51;-13.39;-209.4;-144.18;14.67;280.75;35.76;-11.5;27.96;4.17;124.72;5.1;10.24;-416.39;-32.23;241.46;2.07;3.57;-0.5
1;-76.57;-23.27;8.01;127.38;31.95;-16.19;-13.3;-220.06;-134.84;16.65;322.14;35.84;-11.21;22.02;8.27;113.87;5.14;9.73;-363.45;-31.88;235.93;2.59;3.57;-0.63
1;-79.8;-19.95;7.89;119.13;32.31;-14.15;-14.32;-216.52;-121.25;15.36;299.81;36.27;-11.28;41.42;15.2;125.38;5.24;10.19;-351.25;-31.02;236.75;4.65;3.63;-0.78
1;-78.29;-25.53;7.29;122.48;31.39;-15.31;-16.51;-214.27;-134.69;15.34;295.82;37.86;-10.99;36.7;7.71;127.44;5.12;10.17;-438.19;-28.7;279.49;2.67;3.68;-0.54
1;-96.16;-19.87;6.16;90.05;31.97;-9.96;-14.11;-202.07;-127.91;16.53;214.99;34.92;-11.76;38.13;11.33;111.74;5.12;9.3;-344.67;-24.62;265.09;0.7;3.75;-0.7
1;-82.66;-29.02;7.53;112.69;35.68;-11.61;-19.82;-210.41;-174.24;19.53;272.77;38.97;-11.22;38.01;11.39;132.42;5.92;9.82;-453.75;-27.57;328.86;5.2;3.8;-0.63
1;-76.65;-29.55;8.38;128.61;38.93;-17.84;-19.27;-214.08;-154.98;18.9;320.74;37.37;-11.01;64.72;8.03;134.77;5.74;10.13;-470.12;-31.95;291.77;5.42;4.04;-0.62
1;-68.07;-24.07;8.31;142.52;33.46;-11.01;-16.63;-220.36;-148.32;17.04;358.52;38.91;-11.1;37.3;9.45;120.2;5.38;9.92;-432.51;-31.12;255.28;3.54;3.63;-0.65
1;-65.95;-23;8.38;149.27;33.77;-12.7;-17.58;-224.46;-148.45;17.8;366.06;38.14;-10.94;42.52;10.79;132.27;5.82;10.36;-438.27;-31.7;277.62;3.05;3.34;-0.61
1;-78.79;-24.69;8.62;127.57;36.13;-17.58;-17.45;-234.71;-147.4;15.7;316.62;38.83;-10.93;29.35;9.15;132.66;5.75;10.6;-447.79;-33.2;243.27;4.23;4.13;-1.03
1;-60.99;-26.88;8.59;158.22;33.37;-17.31;-20.11;-214.14;-148.46;16.19;405.44;39.33;-11.17;35.64;7.47;134.85;5.85;10.75;-460.66;-34.23;263.26;2.3;3.21;-0.67
1;-74.59;-32.6;9.45;129.17;40.04;-26.77;-18.21;-229.73;-170.54;18.66;328.76;37.34;-11.1;41.92;12.09;133.88;6.07;11.21;-458.68;-33.9;215.09;11.78;3.55;-0.75
1;-72.46;-34.55;8.46;138.84;30.93;-18.17;-13.81;-219.84;-139.65;17.56;351.41;37.87;-11.1;24.47;11.74;110.22;5.23;10.48;-386.07;-34.07;211.92;4.44;3.4;-0.42
1;-77.82;-21.54;8.48;128.18;33.86;-18.67;-18.7;-248.45;-152.02;19.56;314.94;38.74;-11.26;39.84;9.19;122.45;5.98;10.8;-422.33;-36.37;242.87;5.08;3.63;-0.93
1;-76.01;-21.95;8.19;136.78;33.48;-17.79;-16.72;-236.45;-131.7;18.68;353.82;38.67;-11.48;29.51;5.11;115.15;5.5;10.61;-395.22;-34.62;230.92;3.02;2.93;-0.48
1;-73.5;-19.76;8.7;133.01;39.16;-13.98;-19.12;-228.49;-160.14;20.2;335.47;34.38;-10.9;40.07;13.55;122.23;6.1;10.03;-362.3;-32.22;268.14;3.63;3.79;-0.93
1;-75.35;-23.23;8.18;132.91;34.4;-14.64;-16.08;-224.24;-140.1;18.6;325.08;35.01;-11.17;30.82;20.29;128.25;6.09;10.35;-378.08;-30.79;265.09;2.48;3.42;-0.79
1;-73.83;-31.02;8.03;130.76;31.59;-14.8;-17.31;-220.58;-160.99;17.13;328.89;39.06;-11.05;25.73;7.95;130.99;5.52;10.26;-463.84;-31.31;277.35;4.93;3.56;-0.66
1;-81.51;-25.19;7.68;122.76;31.54;-14.36;-14.23;-216.12;-132.35;17.37;305.15;38.8;-11.49;29.86;10.83;113.51;5.1;10.16;-374.43;-33.54;243.71;2.25;3.49;-0.42
1;-76.52;-31.52;9.04;133.81;38.34;-18.54;-18.35;-241.06;-192.62;18.95;339.27;38.73;-10.97;28.17;4.27;135.85;5.98;10.93;-478.77;-36.2;285.75;10.42;3.74;-0.76
1;-69.55;-27.58;8.16;134.93;36.27;-21.7;-17.8;-218.88;-170.58;16;349.89;38.47;-11.11;28.87;8.72;126.82;5.46;10.84;-454.54;-33.3;251.28;5.06;3.46;-0.75
1;-69.13;-22.89;8.17;127.85;34.19;-13.23;-17.97;-221.52;-154.58;13.66;319.2;38.26;-11.08;37.41;7.94;122.18;5.11;10.1;-375.45;-33.14;258.02;5.19;3.86;-0.9
1;-72.76;-21.78;8.25;127.84;34.68;-20.69;-18.47;-234.09;-151.98;17.87;320.35;39.32;-11.19;42.79;5.27;120;5.33;10.74;-428.32;-35.94;260.7;5.02;3.29;-0.74
1;-74.77;-17.23;8.87;127.51;37.1;-21.86;-20.75;-230.37;-162.16;17.69;314.14;39.31;-11.09;49.92;8.88;137.61;6.16;11.16;-460.98;-36.11;281.63;6.41;3.6;-1.18
1;-75.41;-28.24;8.83;132.57;37.95;-20.51;-19.01;-227.6;-184.22;17.6;347.12;39.85;-10.95;48.98;3.71;138.72;5.89;10.88;-492.94;-35.21;306.03;7.39;3.64;-0.93
1;-84.02;-21.5;7.88;113.07;33.58;-19.56;-17.67;-225.39;-135.42;18.36;282.43;38.68;-11.44;46.02;9.2;120.4;5.6;10.75;-440.9;-33.87;251.4;2.32;3.76;-0.53
1;-74.95;-25.75;7.56;130.23;30.31;-12.98;-16.15;-219.04;-132.3;14.83;333.53;37.68;-11.13;19.64;18.48;123.56;5.23;10.43;-374.42;-29.32;230.04;2.53;3.71;-0.83
1;-75.4;-25.69;8.29;130.83;32.61;-15.92;-14.68;-223.57;-155.01;16.72;321.68;38.46;-11.18;26.28;9.18;117.44;5.25;10.11;-393.66;-33.2;256.95;5.52;3.64;-0.48
1;-65.23;-30.52;8.8;150.22;33.68;-18.25;-16.86;-226.56;-161.92;16.94;381.52;37.67;-10.88;34.94;7.48;120.7;5.58;10.42;-421.79;-31.99;245.36;5.71;3.7;-0.68
1;-83.76;-21.11;7.5;119.68;34.02;-14.31;-13.38;-243.21;-126.68;15.29;285.67;35.41;-11.62;28.53;14.29;118.89;5.14;10.3;-343.46;-30.5;228.14;2.25;3.46;-0.76
1;-68.22;-28.36;8.4;141.97;29.91;-16.45;-12.13;-234.56;-132.39;9.3;353.78;40.17;-10.99;9.41;15;108.93;4.46;10.46;-348.55;-32.43;183;6.54;3.6;-0.78
1;-72.8;-26.2;8.25;133.52;32.04;-20.97;-18.26;-221.74;-155.92;16.99;344.16;40.87;-11.28;46.3;4.44;137.68;5.55;11.12;-502.11;-32.6;289.16;4.75;3.22;-0.85
1;-76.11;-19.13;8.01;135.49;37.6;-16.5;-15.98;-228.18;-134.82;16.2;344;37.86;-11.3;47.25;13.08;121.95;5.52;10.9;-370.44;-31.2;237.31;2.95;3.62;-0.9
1;-79.4;-23.43;8.23;127.6;36;-21.43;-15.93;-220.64;-168.8;15.16;325.91;40.48;-11.46;38.69;6.15;125.16;5.07;10.68;-472.13;-33.3;279.06;6.18;3.53;-0.63
1;-65.12;-21.29;8.61;148.8;34.06;-18.37;-14.99;-233.99;-155.65;16.07;371.59;38.94;-10.92;24;10.29;129.33;5.31;10.89;-434.5;-30.22;255.95;4.81;3.77;-0.84
1;-87.01;-24.59;7.43;111.47;34.09;-18.26;-11.63;-233.24;-148.87;14.03;265;38.74;-11.58;34.06;11.31;115.75;4.74;10.62;-395.9;-28.87;227.17;6.28;3.88;-0.78
1;-71.19;-24.58;8.36;137.09;33.14;-20.33;-17.05;-230.57;-148.47;15.97;343.6;38.43;-11.17;32.28;8.27;116.39;5.43;10.4;-390.16;-34.3;241.71;6.11;3.36;-0.75
1;-72.12;-18.5;8.09;133.2;33.85;-20.63;-16.86;-229.18;-151.71;17.18;333.83;39.5;-11.34;46.16;7.14;135.15;5.27;11.05;-446.92;-32.37;267.76;4.23;3.19;-0.87
1;-63.52;-31.32;8.72;147.6;33.47;-21.96;-17.76;-223.08;-169.98;17.55;362.86;40.04;-10.83;43.61;3.23;130.44;5.49;10.89;-482.58;-35.19;266.26;6.62;3.44;-0.63
1;-74.29;-18.18;7.43;130.7;38.76;-17.72;-16.84;-242.48;-147.91;16.37;325.15;39.15;-10.97;42.75;3.19;127.31;5.41;10.56;-431.56;-30.2;263.66;3.08;3.95;-0.96
1;-67.93;-17.68;8.06;136.89;35.79;-24.81;-19.37;-229.71;-163.87;18.42;353.86;39.97;-11.23;46.1;8.91;140.73;5.95;11.43;-459.3;-32.15;302.23;4.6;3.12;-0.91
1;-73.3;-16.82;8.42;120.71;37.87;-22.67;-18.04;-231.97;-168.61;17.5;303.22;39.95;-11.09;37.57;6.52;135.89;5.9;11.11;-448.03;-34.25;262.66;7.19;3.67;-1.16
1;-65.53;-23.35;8.52;144.58;36.01;-21.64;-19.04;-233.26;-159.22;15.91;361.94;39.51;-10.94;35.39;8.68;128.21;5.49;10.86;-451.74;-33.1;240.87;4.68;3.85;-0.78
1;-64.01;-23.27;8.78;141.58;37.16;-25.31;-22.79;-231.42;-172.2;17.95;352.85;39.75;-11.02;50.45;-3.13;139.88;5.96;11.1;-525.86;-33.04;275.09;7.87;4;-0.79
1;-73.37;-17.98;8.05;136.41;35.57;-25.93;-16.73;-235.28;-139.71;16.53;343.09;39.54;-11.42;39.95;6.56;118.91;5.1;11.53;-428.03;-35.94;230.25;5.16;3.32;-0.75
1;-62.28;-22.92;9.24;150.14;37.36;-29.16;-20.85;-236.86;-185.79;16.33;366.22;41.12;-10.73;39.53;5.19;146.53;6.12;12.26;-527.16;-32.32;277.56;10.48;3.74;-1.03
1;-78.49;-24.46;7.69;119.06;31.97;-20.9;-19;-215.58;-150.06;13.58;298.6;40.69;-11.46;35.05;1.72;134.58;5.06;10.99;-510.29;-30.47;263.63;4.23;3.55;-0.77
1;-76.13;-24.18;8.52;118.38;38.91;-20.85;-17.53;-239.55;-169.39;14.07;291.4;39.83;-11.37;31.69;2.89;134.99;5.23;11.12;-492.41;-34.96;262.7;7.83;4;-0.91
1;-72.97;-22.93;8.46;132.83;31.87;-18.39;-16.34;-243.51;-148.31;15.43;341.89;39.16;-11.11;23.44;12.15;119.64;5.27;10.42;-427.26;-32.55;218.79;8.27;3.89;-0.91
1;-66.32;-20.93;8.83;131.16;38.1;-21.04;-19.77;-208.18;-158.72;16.13;322.74;38.78;-11.16;52.76;2.08;135.73;5.72;10.96;-500.3;-36;234.53;7.37;3.6;-0.83
1;-69.56;-23.43;8.72;129.89;34.64;-14.84;-21.6;-214.56;-159.42;16.77;329.72;38.88;-10.83;25.72;10.58;122.47;5.95;10.01;-441.75;-34.63;242.13;7.21;4.34;-1.06
1;-76.51;-16.38;8.04;129.59;32.69;-19.96;-13.59;-234.01;-129.8;13.37;323.97;39.71;-11.36;40.86;8.36;116.3;4.72;11.34;-400.4;-30.02;232.17;5.13;3.35;-0.65
1;-73.17;-26.44;8.23;120.16;34.68;-26.5;-22.29;-232.11;-170.82;16.79;297.16;39.63;-11.48;37.31;9.46;135.57;6.04;11.33;-510.56;-33.45;240.84;7.91;3.37;-1.09
1;-66.44;-18.19;9.22;135.87;34.99;-20.81;-18.17;-241;-154.42;17.41;335.15;41.79;-10.81;35.12;11.23;122.28;5.39;11.46;-404.78;-34.66;214.74;9.63;3.68;-0.92
1;-70.89;-25.2;8.3;142.05;37.22;-20.26;-19.33;-250.76;-154.61;13.78;347.37;38.91;-11.1;37.77;13.05;114.51;5.37;10.52;-411.27;-33.44;232.74;8.43;4;-0.95
1;-66.26;-20.75;9.12;139.93;37.13;-26.43;-19.34;-237.2;-170.77;16.95;351.67;42.07;-10.87;40.34;2.47;135.08;5.56;11.54;-507.66;-35.41;250.36;9.02;3.69;-1
1;-64.54;-18.68;8.15;145.03;37.07;-25.46;-17.6;-237.28;-148.21;14.05;359.63;39.83;-11.17;41.35;9.52;126.88;5.01;11.03;-460.81;-32.02;226.01;6.55;3.37;-0.74
1;-66.97;-25.39;8.91;139.72;39.25;-27.83;-25.06;-230;-177.57;12.54;345.59;41.07;-11.18;52.82;6.78;143.6;6.11;11.35;-530.89;-36.13;255.13;8.8;3.5;-0.95
1;-63.83;-24.88;9.59;143.33;38.8;-28.13;-22.74;-238.63;-183.2;14.74;354.54;41.63;-11.18;51.55;1.3;137.9;6.07;11.7;-540.18;-36.39;267.91;10.47;3.55;-0.91
1;-68.45;-17.15;8.6;144.07;36.12;-20.27;-15.99;-257.94;-146.66;13.73;352.45;40.3;-11.06;30.37;15.02;115.47;4.73;10.85;-379.73;-32.44;218.93;8.45;3.99;-0.94
1;-80.62;-26.84;8.66;115.39;35.33;-27.49;-20.6;-213.09;-183.29;13.36;278.6;41.47;-11.59;42.41;2.18;131.76;5.45;11.14;-529.63;-36.42;278.71;10.68;3.52;-0.8
1;-61.81;-14.81;10.12;152.2;37.33;-25.37;-20.02;-234.71;-151.04;12.06;388.94;38.97;-10.91;43.77;-0.35;115.38;5.33;10.78;-440.91;-34.95;165.69;10.8;3.91;-0.6
1;-49.69;-20.32;8.42;170.95;39.57;-14.12;-19.27;-235.67;-160.37;10.37;401.34;39.69;-10.77;65.78;2.28;135.76;4.93;10.5;-509.9;-28.72;291.57;3.58;3.92;-1.08
1;-48.74;-4.95;9.48;173.08;40.06;-22.98;-13.37;-274.42;-127.58;14.54;394.23;42.96;-10.57;68.02;7.07;121.04;5.08;11.58;-403.09;-33.44;196.91;8.17;3.79;-0.83
1;-49.32;-23.05;9.54;174.73;42.32;-23.15;-18.93;-240.85;-179.38;15.98;425.02;38.55;-11.03;74.97;-3.13;133.34;5.7;11.01;-480.18;-36.64;243.81;8.44;3.15;-0.51
1;-42.76;-15.44;9.54;180.03;44.79;-25.3;-19.67;-257.24;-182.14;14.73;411.93;39.01;-10.64;65.99;4.03;122.19;5.28;11.39;-437.07;-35.44;239.18;10.91;3.84;-0.96
1;-40.04;-9.17;9.55;185.26;49.85;-27.7;-21.85;-243.88;-174.05;12.32;440.97;40.6;-10.87;110.77;-2.72;133.79;5.6;11.53;-516.99;-36.71;264.41;8.85;3.46;-0.86
1;-42.47;-16.81;9.94;179.08;50.19;-26.88;-18.8;-258.87;-186.16;14.83;431.94;38.83;-10.67;96.23;-1.98;124.04;5.41;11.86;-460.05;-35.58;228.2;11.12;3.37;-0.67
1;-15.18;-6.89;9.98;211.36;51.94;-14.86;-19.62;-257.7;-159.57;16.18;435.82;39.16;-9.98;116.55;2.59;103.76;5.52;10.37;-392.74;-32.5;195.27;10.18;4.58;-0.67
1;-49.94;-12.73;9.54;171.5;45.16;-23.2;-15.69;-257.09;-162.59;15.65;418.34;39.7;-11.02;75.13;0.49;123.82;4.89;11.7;-434.08;-33.17;213.8;9.61;3.28;-0.77
1;-46.61;-10.82;9.83;172.08;48.96;-23.43;-19.32;-263.99;-177.35;13.25;404.59;41.72;-10.33;73.22;8.39;126.44;5.33;12.14;-455.73;-33.98;198.99;12.98;4.14;-1.12
1;-35.85;-14.14;9.57;187.34;40.08;-30.13;-21.57;-244.88;-167.52;18;429.32;38.78;-10.22;71.65;1.03;139.59;6.43;12.14;-486.61;-33.34;218.97;9.31;3.44;-0.67
1;-47.47;-13.51;9.57;172.19;40.45;-25.46;-14.89;-257.47;-151.22;13.83;419.11;41.24;-10.67;65.87;1;112.84;4.96;11.09;-420.56;-35.87;161.6;10.79;3.64;-0.72
1;-29.07;-4.94;9.46;191.71;49.62;-15.85;-15.18;-262.32;-154.9;11.03;427.65;41.25;-10.49;100.73;3.69;106.86;4.61;10.62;-376.1;-32.3;175.93;12.73;4.24;-0.83
1;-39.73;-10.74;9.47;175.45;60.65;-25.27;-19.82;-246.83;-182.23;16.8;408.43;39.94;-10.7;122.41;-0.54;123.06;5.86;11.06;-470.86;-33.82;224.02;10.97;3.64;-0.86
1;-43.8;-11.72;9.72;181.06;48.3;-21.36;-17.82;-252.07;-173.27;16.73;416.38;41.64;-10.61;81.08;6.73;114.04;5.65;10.84;-427.29;-32.92;237.73;12.53;3.68;-0.52
1;-33.57;-9.83;10.1;190.08;49.31;-21.9;-14.86;-249.4;-155.3;11.74;441.56;39.81;-10.41;91.81;0.03;115.46;4.75;10.75;-432.05;-33.67;175.32;10.57;3.86;-0.75
1;-37.83;-9.91;9.6;181.15;47.02;-22.81;-19.79;-252.1;-178.15;13.48;414.23;41.29;-10.41;87.17;4.65;131.79;5.58;11.67;-491.94;-34.27;243.05;11.88;3.66;-0.79
1;-37.41;-12.95;9.86;184.17;44.75;-20.85;-19.59;-244.35;-176.29;15.1;416.62;41.04;-10.11;83.5;-1.68;133.71;5.78;11.3;-490.75;-32.18;242.06;10.6;4.06;-0.61
1;-43.05;-17.13;9.4;175.14;38.69;-22.79;-19.32;-239.83;-157.1;13.83;407.15;40.52;-10.65;55.5;3.2;124.59;5.49;11.05;-472.8;-33.69;200.07;8.95;3.53;-0.52
1;-47.93;-15.13;10.04;173.14;40.63;-23.71;-19.82;-236.89;-160.55;12.93;398.19;40.68;-10.49;62.72;-0.72;124.49;5.33;11.01;-493.27;-34.18;220.24;10.57;3.86;-0.82
1;-42.47;-3.32;9.67;172.89;49.94;-18.04;-14.87;-230.5;-150.42;11.58;410.21;39.24;-10.64;106.26;3.53;107.43;4.73;10.32;-366.68;-36.27;173.74;10.11;3.88;-0.85
1;-36.01;-14.49;9.76;184.26;46.56;-25.19;-24.52;-251.09;-186.2;16.57;425.08;41.82;-10.43;90.64;2.4;133.1;6.44;11.65;-513.98;-34.49;243.93;12.44;3.51;-0.83
1;-31.2;-13.53;10.24;190;41.36;-17.79;-15.08;-242.33;-150.15;12.87;439.42;39.01;-10.13;90.48;1.73;105.9;4.65;10.81;-373.05;-32.97;170.37;12.85;4.32;-0.56
1;-37.38;-14.53;10.18;182.47;42.26;-23.81;-18.31;-260.26;-168.34;17.98;413.95;42.01;-10.33;57.95;1.98;127.84;5.65;12.01;-467.48;-32.95;211.02;12.13;3.88;-0.51
1;-36.68;-15.94;9.73;183.41;46.79;-21.48;-17.83;-238.34;-151.38;14.09;415.74;40.12;-10.45;88.81;3.41;108.63;5.16;10.86;-427.67;-35.86;169.94;9.21;4.17;-0.62
1;-34.94;-8.47;10.07;184.22;53.47;-18.48;-13.94;-256.21;-168.47;13.93;411.89;40.66;-10.04;83.63;1.62;105.54;4.6;10.89;-433.7;-34.09;193.87;13.4;4.61;-0.91
1;-34.9;-7.2;10.3;197.46;55.16;-29.2;-13.74;-283.38;-162.98;13.91;454.17;39.48;-10.11;81.58;5.38;113.41;4.8;12.87;-405.64;-36.26;137.44;14.55;4.65;-1.26
1;-28.33;-10.07;10.12;198.37;51.85;-23.92;-21.46;-247.54;-175.19;9.61;446;39.58;-9.7;102.49;2.21;126.53;5.59;12.17;-482.41;-31.1;202.53;11.82;4.63;-1.05
1;-36.23;-15.15;9.43;180.16;46.18;-24.42;-17.05;-256.25;-153.63;13.71;421.39;39.97;-10.35;103.77;-3.76;112.68;4.95;11.11;-456.85;-33.74;176.97;8.6;4.09;-0.4
1;-15.04;-8.22;9.74;198.97;50.56;-16.87;-14.34;-237.88;-145.99;10.31;423.21;39.1;-10.03;93.07;2.34;101.32;4.43;10.24;-379.58;-33.16;134.27;12.17;4.78;-0.73
1;-37.64;-13.49;10.26;178.54;44.12;-21.58;-16.61;-250.67;-169.61;15.29;409.37;40.55;-9.94;75.76;4.2;110.07;4.97;11.28;-402.55;-33.42;178.7;14.12;4.25;-0.74
2;-131.31;-13.75;11.07;82.54;52.11;-17.44;-15.81;-270.33;-161.25;4.31;-22.85;34.65;-10.52;54.37;17.04;83.29;4.91;13.25;-240.53;-30.75;125.09;20.59;4.15;-2.14
2;-128.94;-11.62;12.7;91.09;54.32;-17.74;-17.91;-285.26;-191.87;9.01;-2.47;27.09;-10.34;54.71;14.23;81.17;5.57;12.63;-180.95;-34.98;148.24;29.46;3.8;-1.68
2;-124.25;-7;12.11;88.96;54.82;-17.93;-14.95;-290.34;-172.79;8.43;17.91;31.34;-10.68;59.96;5.91;84.65;4.93;13.52;-191.89;-32.17;127.3;26.85;3.94;-1.91
2;-124.41;-6.15;12.82;92.08;57.32;-21.04;-16.29;-299.6;-190.58;6.91;19.48;32.32;-10.29;51.17;1.46;100.87;5.08;14.05;-208.16;-34.95;133.49;27.8;3.92;-2.19
2;-126;-9.87;13.44;89.79;60.02;-16.46;-16.95;-292.21;-193.1;9.15;13.12;34.1;-10.45;64.17;9.33;85.6;5.6;13.29;-218.22;-35.7;125.05;29.74;4.64;-1.8
2;-126.62;-11.68;11;87.14;49.56;-18.39;-12.9;-304.63;-154.41;7.35;17.43;27.4;-11.18;48.99;-2.22;100.68;4.72;13.59;-235.04;-28.73;125.49;20.54;4.24;-1.58
2;-124.79;-8.88;11.45;86.86;55.85;-20.03;-13.15;-259.66;-178.13;11.99;-2.17;25.71;-10.64;61.9;11.76;86.25;5.12;13.43;-182.39;-29.56;150.89;22.72;4;-1.91
2;-132.07;-8.24;13.85;92.29;58.78;-18.66;-19.81;-311.26;-198.79;13;3.86;34.08;-10.89;65.62;3.54;98.34;6.43;13.43;-230.97;-39.61;138.02;29.54;4.35;-1.58
2;-122.58;-18.91;13.95;91.71;64.36;-18.13;-15.39;-309.89;-183.9;8.14;13.38;28.57;-11.82;60.19;2.34;91.14;5.33;14.65;-232.51;-33.74;134.32;30.62;3.78;-1.77
2;-125.52;-10.83;12.02;90.63;51.9;-19.38;-14.62;-287.67;-175.84;5.23;13.49;32.08;-10.63;49.45;12.64;91.76;4.81;13.91;-232.03;-34.66;148.7;23.29;4.38;-2.13
2;-125;-11.7;13.31;93.04;57.49;-16.73;-18.04;-308.09;-194.13;7.9;4.87;36.99;-10.71;80.29;16.62;98.85;5.56;13.32;-269.39;-34.9;133.3;31.14;4.23;-2
2;-131.6;-21.96;10.28;95.17;48.54;-18.39;-11.08;-294.89;-156.42;4.44;3.44;32.9;-10.84;39.08;16.54;93.72;4.35;13.55;-270.48;-29.36;130.3;20.06;4.98;-1.43
2;-127.72;-9.34;11.76;85.37;53.44;-19.39;-15.06;-282.39;-171.66;5.59;-7.91;29.71;-10.54;53.46;0;86.54;4.86;13.13;-221.93;-32.76;109.24;24.87;4.29;-1.78
2;-127.6;-6.7;11;89.05;49.59;-20.03;-14.72;-295.61;-161.43;7.69;-10.23;23.26;-11.27;46.2;-2.01;81.33;4.84;12.8;-184.1;-31.22;115.74;21.32;3.85;-1.7
2;-121.41;-12.86;11.07;90.28;50.55;-18.76;-12.44;-275.85;-165.46;4.73;11.82;26.94;-10.74;55.94;13.7;81.33;4.26;13.01;-168.97;-32.97;149.22;20.79;4.14;-1.84
2;-129.51;-7.34;11.14;87.04;49.9;-17.49;-14.27;-277.33;-160.01;6.31;-0.85;31.19;-10.67;53.57;-1.79;94.06;4.79;13.88;-254.81;-29.89;117.03;22.82;4.57;-1.61
2;-121.33;-10.94;12.42;93.33;54.51;-19.28;-14.99;-306.18;-176.63;12;9.11;25.2;-10.79;61.72;5.4;77.05;5.28;12.87;-153.72;-34.16;128;24.78;4.08;-1.37
2;-122.11;-8.97;11.3;85.72;52.46;-19.2;-16.64;-274.57;-168.9;8.12;-5.29;29.03;-10.92;53.01;4.1;85.31;5.55;13.07;-221.09;-29.38;108.18;24.48;3.95;-1.93
2;-118.67;-19.59;13.07;88.57;67.54;-19.44;-14.41;-294.88;-184.27;10.42;2.93;31.11;-11.73;60.13;6;96.9;5.85;14.53;-250.91;-32.6;152.97;24.42;4.05;-1.42
2;-124.03;-18.07;8.55;81.01;44.6;-17.99;-9.29;-250.22;-125.7;4.08;-16.32;28.01;-10.83;42.94;34.96;71.51;3.85;12.42;-176.33;-25.13;140.02;12.66;4.35;-1.76
2;-130.2;-14.8;11.42;88.75;50.09;-18.53;-14.73;-290.63;-167.45;8.15;-6.22;29.58;-10.9;46.87;-0.9;88.17;4.86;13.2;-228.93;-32.36;113.18;22.29;4.45;-1.89
2;-128.22;-8.92;12.14;89.88;57.27;-20.37;-15.14;-281.13;-187.29;4.83;0.23;32.23;-10.45;62.39;0.88;89.95;4.9;14.06;-251.56;-33.65;116.86;26.54;4.57;-1.73
2;-122.68;-9.9;12.44;90.66;54.06;-17.46;-17.11;-286.82;-177.7;17.2;-0.5;32.22;-10.69;44.41;0.84;92.02;5.8;13.31;-232.16;-34.9;132.55;25.52;4.16;-1.28
2;-114.39;-7.36;12.91;90.23;57.89;-16.27;-20.79;-336.92;-188.33;15.09;-5.44;27.33;-10.58;81.92;8.79;84.3;6.22;12.5;-225.22;-36.7;123;27.89;3.85;-1.41
2;-120.98;-12.81;12.41;93.69;55.41;-20.23;-16.53;-274.95;-195.9;3.93;3.12;28.01;-10.25;55.79;17.81;73.5;5.08;13.61;-219.98;-35.94;127.27;28;4.32;-1.98
2;-121.18;-6.57;12.71;89.4;54.74;-20.59;-16.44;-283.07;-168.52;7.28;-7.44;35.13;-10.17;57.81;-4.58;102.51;5.53;14.05;-253.25;-33.92;140.33;27.83;4.55;-2.17
2;-127.62;-15.87;10.7;87.26;60.92;-20.81;-11.99;-285.33;-167.75;6.91;-11.6;26.92;-11.96;63.55;-3.62;79.11;4.6;13.84;-201.77;-28.98;122.83;16.71;4.06;-1.44
2;-125.38;-13.2;12.11;99.97;57;-20.65;-14.1;-289.11;-192.45;6.88;17.57;24.2;-10.7;65.65;15.94;88.67;5.37;13.73;-192.19;-35.32;165.2;25.85;4.77;-1.82
2;-123.06;-7.48;13.8;93.75;60.39;-19.77;-16.94;-305.81;-208.02;6.16;16.15;34.55;-10.09;62.14;5.06;83.04;5.59;13.79;-228.34;-37.41;121.29;33.17;4.78;-2.2
2;-122.11;-11.58;11.08;88.26;53.52;-18.02;-14.77;-264.21;-170.78;4.78;16.25;23.4;-10.67;55.57;11.13;77.63;4.66;12.7;-227.1;-31.48;122.98;22.09;4.4;-1.77
2;-123.62;-9.27;10.34;94.57;46.11;-17.46;-11.7;-278.61;-145;4.72;17.89;22.88;-11.12;56.09;6.87;57.65;4.33;13;-140.11;-29.96;98.32;19.25;4.19;-1.38
2;-131.69;-10.5;11.37;90.66;55.06;-18.42;-14.56;-291.09;-173.58;6.81;-17.25;31.84;-10.66;55.71;8.98;81.61;5.21;13.04;-207.95;-31.66;124.56;23.55;4.19;-1.84
2;-124.79;-14.27;13.26;93.01;58.62;-19.49;-18.68;-278.63;-207.54;6.9;20.2;31.72;-10.36;64.66;12.36;87.6;5.89;13.74;-234.8;-37.68;129.24;31.28;4.44;-2.15
2;-127.44;-11.51;11.91;92.82;55.3;-19.47;-13.22;-286.42;-190.36;6.75;9.82;25.56;-10.6;55.25;4.86;83.02;4.92;13.28;-208.69;-33.7;111.38;26.34;4.22;-1.57
2;-121.65;-9.88;13.7;90.53;60.08;-20.06;-17.35;-274.45;-205.47;4.39;3.38;31.07;-10.11;60.3;0.24;77.69;5.3;13.73;-214.63;-38.85;102.67;32.04;4.17;-2.08
2;-123.32;-18.19;11.81;91.03;54.01;-16.57;-12.57;-293.92;-173.33;6.02;5.17;22;-11.1;50.13;21.18;76.62;4.65;12.46;-150.08;-31.77;160.67;23.84;4.79;-1.44
2;-124.1;-18.99;9.06;78.87;43.76;-15.15;-11.99;-271.09;-144.9;6.43;-25.46;30.36;-10.96;26.24;-0.95;83.36;4.21;11.79;-231.91;-25.8;118.02;15;4.35;-1.49
2;-128.22;-10.72;12.08;91.8;53.2;-18.21;-14.11;-303.02;-179.24;7.1;10.56;32.36;-10.91;55.17;-1.95;93.82;4.88;13.76;-268.82;-33.04;111.94;24.95;4.69;-1.54
2;-121.82;-8.28;11.98;87.38;54.94;-17.91;-13.79;-271.22;-177.28;5.23;8.45;30.73;-10.2;59.43;4.5;79.28;4.75;13.36;-226.07;-33.94;114.58;24.65;4.59;-1.78
2;-119.37;-19.31;11.01;87.87;50.43;-16.73;-12.77;-267.27;-182.03;6.54;2.24;26.48;-10.74;43.36;12.26;82.29;4.91;12.71;-237.77;-33.02;122.96;21.67;4.24;-1.77
2;-124.32;-11.97;12.08;91.98;54.15;-16.74;-15.6;-285.79;-178.04;3.78;20.2;28.17;-10.61;58.84;13.06;79.99;4.71;13.18;-229.79;-33.31;129.43;26.39;5.32;-2.05
2;108.04;5.57;8.71;249.36;49.01;-1.92;-5.98;-289.05;-160.89;8.54;433.68;19.85;-4.6;55.3;-10.03;75.82;3.43;6.29;-129.28;-28.35;117.81;5.43;9.19;-0.55
2;-122.31;-9.01;10.77;85.39;51.66;-17.2;-10.58;-266.73;-161.74;5.36;10.84;24.35;-10.68;62.04;29.26;66.63;4.3;12.68;-133.66;-27.9;151.79;21.2;4.47;-1.89
2;-117.97;-15.05;12.6;84.3;61.39;-17.93;-15.27;-292.39;-168.03;7;22.01;27.66;-11.66;49.54;-6.26;99.38;5.08;14.23;-275.12;-32.14;116.44;24.61;4.56;-1.75
2;-123.08;-8.89;10.3;87.08;51.96;-21.64;-13.43;-285.42;-149.32;5.02;5.66;24.61;-10.88;60.75;8.46;85.72;4.78;13.22;-233.27;-28.28;129.72;18.32;4.42;-2.22
2;-119.64;-18.98;12.12;83.69;61.07;-20.3;-13.66;-287.75;-159.45;6.33;-8.86;32.27;-12.11;55.39;8.26;78.65;4.76;14.4;-228.4;-32.77;94;23.34;4.03;-1.77
2;-122.27;-20.36;11.75;87.93;56.53;-19.58;-14.96;-275.01;-194.79;9.68;-8.48;33.1;-11.02;38.02;0.23;99.07;5.39;14.01;-286.88;-30.72;136.54;24.87;4.96;-1.93
2;-123.45;-16.07;13.46;84.98;62.33;-19.72;-16.09;-268.11;-201.64;11.94;-12.38;37.36;-11.52;50.7;-11.27;117.39;6.19;15.23;-346.36;-31.73;148.19;29.31;4.5;-1.48
2;-134.7;-17.08;12.93;89.51;59.33;-17.61;-16.36;-299.02;-203.44;8.57;-4.01;38.03;-10.54;49.68;1.82;98.31;5.39;14.04;-288.04;-33.06;135.38;28.49;4.79;-1.91
2;-127.18;-24.37;11.14;85.16;61.59;-17.61;-11.52;-285.23;-173.36;6.55;12.9;38.3;-12.04;60.02;0.72;102.26;5.16;15.2;-289.79;-30.22;138.27;18.92;4.65;-1.58
2;-133.12;-12.39;11.18;89.13;53.86;-17.44;-13.36;-290.21;-176.03;6.21;0.21;29.98;-11.58;55.54;6.73;95.93;5.11;13.93;-278.59;-30.79;145.34;22.59;4.45;-1.71
2;-137.93;-10.62;11.7;93.36;54;-19.31;-12.04;-291.6;-170.34;5.55;2.85;33.15;-11.51;58.38;12.13;66.09;4.65;14.1;-144.12;-32.38;123.63;24.15;4.17;-1.6
2;-136.13;-14.92;10.47;88.35;59.55;-20.07;-10.74;-294.9;-158.25;6.3;3.75;31.96;-12.3;56.75;2.02;94.92;4.79;14.88;-251.93;-27.41;136.71;20.29;3.88;-1.62
2;-145.02;-6.6;12.28;95.06;64.24;-24.48;-18.56;-310.29;-171.71;12.5;7.93;32.08;-12.38;72.01;-15.02;122.75;6.31;15.39;-349.43;-31.56;171.78;26.54;3.85;-1.47
2;-140.22;-12.19;12.79;96.17;58.22;-20.57;-15.52;-298.05;-191.93;3.6;17.51;31.67;-11.18;59.87;4.58;86.21;5.17;14.45;-252.58;-36.79;114.24;26.14;4.76;-2.07
2;-133.29;-11.55;12.7;93.34;61.25;-20.42;-11.44;-287.78;-196.25;5.77;-2.26;30.45;-11.43;65.61;29.03;78.79;4.7;14.36;-182.76;-35.02;154.28;25.63;4.19;-1.69
2;-137.06;-14.49;12.85;95.48;57.4;-19.62;-16.61;-295.09;-199.16;6.25;5.64;30.42;-11.46;56.18;19.77;94.77;5.57;14.2;-247.2;-36.14;155.96;27.04;4.34;-2.2
2;-132.31;-14.23;13.48;103.46;61.45;-24.35;-15.72;-312.93;-205.55;6.19;15.92;28.34;-10.89;57.99;15.91;92.81;5.39;14.81;-211.87;-35.49;171.12;30.76;4.69;-2.09
2;-137.55;-6.02;11.56;90.11;54.93;-22.08;-13.92;-317.18;-165.95;7.9;-15.48;22.44;-11.68;59.07;11.66;78.52;4.68;13.55;-135.95;-31.11;158.18;23.31;4.39;-1.94
2;-136.74;-13.45;12.22;97.68;60.19;-20.15;-15.17;-321.64;-183.07;9.44;6.58;25.36;-11.78;65.38;6.82;93.67;5.65;13.9;-208.92;-29.98;142.87;25.61;5.01;-1.61
2;114.1;3.19;9.98;280.62;55.96;-6.85;-5.63;-319.42;-175.32;6.01;482.06;22.19;-4.81;56.68;-3.74;69.8;3.37;7.13;-216.85;-31.1;118.08;5.89;8.99;-0.51
2;-141.05;-13.71;12.9;92.76;57.12;-22.55;-13.01;-298.55;-185.71;6.64;2.89;30.99;-11.01;57.15;7.67;72.39;4.98;14.61;-220.14;-34.82;113.84;28.05;4.86;-1.73
2;-130.87;-10.96;11.88;93.17;54.69;-23;-11.73;-310.82;-174.3;7.91;5.81;31.17;-10.99;47.87;16.46;86.19;4.4;14.56;-168.19;-33.15;163.11;22.93;4.67;-2.11
2;-135.34;-17.13;14.08;95.11;65.62;-19.77;-19.07;-316.4;-229.3;8.07;-3.16;33.78;-11.36;82.49;6.15;107.15;6.01;14.18;-301.83;-37.24;137.98;33.29;4.89;-2.01
2;-132.81;-11.42;11.45;94.12;55.98;-22.58;-14.46;-297.06;-183.58;3.78;12.39;30.22;-11.68;53.4;19.79;80.9;4.86;14.73;-196.33;-32.89;135.03;23.95;3.7;-2.38
2;-133.55;-13.13;12.76;94.75;55.65;-21.47;-16.12;-299.91;-186.5;4.39;10.55;25.96;-10.99;55.28;6.41;82.05;5.05;13.91;-234.88;-34.28;125.33;25.84;4.22;-2.1
2;-148.51;-17.66;13.65;100.55;62.32;-24.8;-17.18;-317.06;-207.87;5.75;18.86;30.33;-12.17;65.78;11.35;87.58;5.87;14.54;-204.36;-35.45;159.45;29.17;4.69;-2.02
2;-136.98;-16.96;14.36;90.67;59.31;-17.47;-18.2;-287.43;-208.89;10.95;-6.97;33.67;-11.75;57.08;15.66;87.72;6.18;13.99;-219.39;-39.71;134.67;31.86;5.12;-1.75
2;95.85;2.93;9.04;263.98;61.1;-5.71;-5.76;-315.65;-173.59;4.5;472.18;25.42;-4.66;93.59;-17.03;83.08;2.6;7.73;-181.42;-29.02;114.24;7.8;9.26;-0.44
2;-137.56;-14.15;11.79;88.13;55.81;-21.62;-14.28;-292.16;-174.34;7.03;-1.76;22.8;-11.51;63.73;14.12;63.08;4.76;13.13;-139.95;-30.84;136.54;24.29;3.75;-1.46
2;-140.77;-13.94;11.28;89.92;55.54;-22.62;-15.99;-291.9;-183.14;5.13;8.23;33.37;-11.69;56.7;13.88;95.78;5.17;14.29;-300.98;-31.48;160.8;23.45;4.42;-1.74
2;-141.23;-12.03;13.48;92.43;65.39;-16;-18.8;-297.38;-212.22;11.41;6.57;30.3;-11.37;98.31;14.17;81.67;6.22;12.99;-212.09;-36.01;146.95;32.35;4.49;-1.69
2;-138.63;-17.27;12.65;91.41;55.98;-21.25;-15.96;-293.82;-189.88;3.24;-7.5;29.76;-10.71;48.5;19.11;79.93;4.64;14.04;-242.54;-35.25;133.81;26.94;5.2;-2.14
2;113.97;20.14;9.9;276.07;70.11;-3.89;-5.67;-333.24;-174.6;7.85;469.73;21.16;-5.06;84.92;-6.5;68.91;3;6.02;-216.85;-33.65;81.99;6.1;9.54;-0.54
2;-139.49;-15.5;13.24;91.65;61.48;-21.31;-17;-299.85;-193.94;6.15;8.79;27.5;-10.81;62.36;15.16;64.04;5.46;13.99;-161.46;-36.41;106.91;28.1;4.08;-1.85
2;-134.53;-12.43;12.01;88.14;59.69;-18.21;-13.96;-296.92;-172.02;5.06;-8.91;24.15;-10.92;72.97;9.44;60.92;4.84;12.91;-140.32;-29.24;93.65;26.75;4.35;-1.75
2;-132.54;-18.31;12.05;93.68;56.65;-21.24;-13.35;-302.32;-179.86;5.58;-2.68;27.72;-11.23;54.44;18.47;64.2;4.75;13.85;-178.91;-32.08;131.8;25.21;4.24;-1.81
2;-129.12;-13.49;12.76;91.41;58.06;-22.82;-15;-291.27;-188.76;6.16;-14.07;26.17;-10.86;54.83;12.25;83;5.23;14.59;-249.08;-31.15;137.92;29.03;4.66;-2.17
2;-122.81;-11.35;13.3;90.14;60.29;-20.65;-16.2;-311.29;-204.31;8.99;-19.06;23.39;-11.15;55.86;11.58;77.07;5.49;13.54;-187.41;-34.9;128.26;31.44;4.66;-1.83
2;-136.97;-6.59;12.75;93.04;61.2;-19.83;-14.75;-316.16;-182.28;11.75;-23.14;25.66;-11.13;64.26;13.65;67.25;5.48;13.5;-182.5;-31.36;102.32;29.35;4.73;-1.76
2;-126.34;-18.45;13.8;93.2;61.93;-19.6;-16.18;-308.91;-201.8;7.29;-1.64;32.52;-11.1;56.69;12.29;93.7;5.72;14.74;-272.51;-34.36;137.24;30;5.03;-2.14
2;94.14;13.03;9;275.15;63.31;-5.07;-6.79;-337.72;-175.47;13.27;457.63;22.91;-4.98;87.92;-5.84;82.18;4.13;7.15;-224.04;-31.41;111.09;8.24;9.27;-0.62
2;-139.15;-18.59;13.23;90.71;60.49;-20.03;-16.43;-303.08;-207.34;5.02;-11.65;27.46;-11.04;63.56;21.65;66.81;5;13.03;-204.81;-34.19;119.81;30.8;4.24;-1.95
2;-146.03;-12.16;12.01;93.96;55.2;-22.44;-14.79;-307.14;-175.23;5.14;-0.12;28.61;-11.67;50.07;17.13;88.24;5;14.2;-214.06;-31.8;148.73;24.86;4.48;-1.9
2;-137.8;-12.97;9.48;95.06;50.61;-25.51;-11.64;-305.96;-151.22;6.32;-24.56;29.18;-11.61;58.56;26.8;85.54;4.74;14.75;-274.93;-27.81;146.8;19.7;4.69;-2.04
2;-145.67;-17.86;13.35;95.41;61.49;-21.26;-17.37;-343.22;-207.95;11.27;-20.36;26.61;-11.94;71.54;6.85;83.5;5.86;13.56;-202.28;-32.45;119.34;30.7;4.74;-1.33
2;2.09;-24.68;13.31;243.19;74.79;-11.98;-14.39;-311.65;-192.5;9.83;478.5;29.63;-7.96;82.75;0.5;89;5.25;8.87;-246.92;-32.56;123.83;28.85;11.26;-3
2;32.88;11.23;9.6;255.51;53.25;-19.36;-8.15;-385.67;-193.97;11.38;456.88;23.91;-7.3;95.63;4.35;64.24;3.49;10.31;-182.74;-32.14;125;7.9;4.17;-0.34
2;-89.29;-14.28;11.03;186.55;67.11;-18.53;-16.46;-337.2;-206.42;11.37;459.13;24.72;-10.72;94.52;6.87;73.3;5;11;-178.84;-34.63;125.28;29.67;4.78;-1.25
2;-64.48;-1.91;11.85;186.32;46.34;-22.04;-13.92;-316.27;-165.75;11.86;417.87;27.56;-8.35;56.58;12.13;61.77;4.59;12.36;-129.97;-28.96;136.85;26.78;7.64;-1.26
2;147.58;-9.81;8.13;284.18;62.73;1.77;-4.77;-342.42;-165.21;9.68;463.15;21.1;-6.09;47.69;-28.03;65.91;3.84;4.87;-130.99;-26.65;104.19;4.69;7.07;-0.08
2;-86.69;-18.76;14.94;74.82;71.4;-5.12;-13.01;-225.34;-176.38;6.91;-13.29;22.83;-12.56;54.02;16.75;75.31;6.37;8.15;-151.64;-28.43;101.66;26;13.49;-3.26
2;31.84;11.85;9.05;267.4;59.27;-18.47;-7.34;-320.26;-180.41;10.42;451.97;25.14;-6.06;79.03;-0.82;78.74;3.41;10.35;-179.77;-34.03;160.04;6.9;5.04;-0.73
2;-81.34;-3.05;11.73;154.36;50.06;-24.66;-13.14;-300.18;-169.69;5.13;341.99;25.23;-8.78;55.71;12.94;54.82;3.83;13.2;-85.32;-31.66;145.86;26.14;6.94;-1.88
2;162.07;3.36;9.06;273.04;67.26;-3.7;-4.77;-326.09;-158.38;15.07;435.87;20.52;-4.96;72.55;-3.87;61.26;4.5;7.35;-142.56;-31.19;69.34;4.98;6.61;0.12
2;-93.41;-14.71;16.5;57.99;74.87;-3.43;-15.61;-249.38;-191.29;5.81;-19.73;22;-12.16;61.23;8.18;65.77;5.92;8.77;-154.36;-33.75;85.42;30.46;12.85;-3.53
2;32.26;-0.33;9.02;268.27;52.56;-18.01;-8.01;-325.08;-181.09;17.97;463.12;26.58;-5.92;52.73;1.57;55.86;4.06;10.89;-119.87;-36.82;113.56;7.05;5.5;0.1
2;-76.69;-2.61;10.76;156.94;51.19;-23.74;-14.37;-303.33;-161.66;5.03;358.84;22.05;-8.98;58.95;7.83;58.94;4.17;12.53;-106.75;-27.03;134.23;25.31;6.62;-1.98
2;145.66;9.88;9.06;293.74;80.31;-6.09;-8.42;-312.84;-178.24;12.72;451.81;27.25;-5.18;88.13;-6.74;66.41;4.31;8.11;-168.09;-31.46;80.49;4.17;7.94;-0.02
2;-90.05;-26.29;13.67;50.98;64.54;-1.95;-12.74;-210.23;-162.04;3.25;-21.72;24.56;-12.14;46.68;27.42;48.42;4.75;7.56;-101.69;-25.26;81.46;21.39;12.7;-3.63
2;36.41;11.56;8.46;261.25;58.17;-19.6;-5.66;-346.21;-171.93;13.14;441.67;23.24;-6;76;3.59;68.29;3.78;10.64;-168.44;-30.94;111.22;6.83;5.29;-0.52
2;-97.13;-5.46;10.22;132.18;51.11;-14.11;-12.41;-290.85;-162.14;5.78;313.73;25.97;-9.43;49.3;12;69.91;4.25;11.77;-167.89;-25.46;124.95;19.82;7.21;-1.62
2;188.75;-5.94;9.04;284.7;66.7;1.06;-5.57;-338.27;-190.26;7.88;468.02;22.79;-3.82;50.68;2.15;63.95;3.16;5.67;-135.94;-28.33;78.15;7.15;7.25;-0.49
2;-101.32;-13.14;15.95;56.47;68.64;-6.27;-13.63;-255.17;-163.85;5;-19.34;21.83;-12.35;76.39;7.29;62.84;5.38;7.54;-129.54;-29.1;89.62;26.4;14.33;-4.19
2;33.4;9.77;7.77;251.19;68.35;-12.75;-9.22;-314.14;-140.4;14.48;444.92;20.53;-6.13;93.65;17.96;91.42;4.21;10.24;-301.12;-28.46;225.38;5.37;4.7;-0.42
2;-79.48;-19.62;10.63;179.9;64.77;-19.99;-13.37;-302.4;-176.85;7.5;449.9;29.66;-10.15;80.34;10.87;87.87;4.72;12.29;-279.91;-29.56;131.58;24.77;4.76;-1.66
2;-113;-1.52;11.43;117.63;54.66;-16.53;-15.93;-317.4;-181.67;8.85;237.36;23.74;-9.91;57.35;-1.63;73.6;4.54;12.08;-183.44;-31.75;111.78;24.87;7.45;-1.39
2;197.08;-0.48;9.11;270.43;68.23;-5.45;-6.47;-346.05;-191.67;12.75;447.99;19.24;-3.68;61.36;12.29;60.21;4.35;6.63;-140.75;-31.96;91.64;4.88;7.43;-0.38
2;-120.29;-10.87;11.98;86.83;51.25;-17.01;-15.69;-317.44;-168.91;9.17;-6.15;35.03;-10.79;45;4.97;86.5;5.17;13.68;-218.02;-31.73;114.68;22.74;4.19;-1.79
2;-127.87;-12.21;10.57;92.29;43.03;-15.12;-15.79;-345.64;-141.79;10.77;-15.66;31.51;-11.11;36.66;-0.86;82.67;5.31;12.65;-223.34;-32.57;93.65;18.16;4.16;-1.33
2;-120.28;-6.81;12.88;85.33;56.3;-18.51;-17.82;-294.24;-185.05;10.42;-9.5;36.06;-10.51;58.03;-3;83.38;5.67;13.48;-213.92;-34.4;117.12;28.11;4.11;-2.04
2;-119.74;-13.3;11.34;86.71;49.5;-16.47;-15.61;-288.21;-161.63;8.2;-5.56;32.2;-10.44;39.6;3.29;79.42;5.21;13.24;-208.89;-35.03;119.87;20.17;4.44;-1.67
2;-113.64;-14.13;11.66;82.32;52.21;-16.16;-13.67;-254.02;-176.12;3.52;-2.45;34.27;-10.3;38.71;13.14;85.08;4.44;13.37;-262.97;-33.45;125.45;22.73;4.56;-1.99
2;-119.27;-4.62;12.05;86.48;53.5;-19.78;-15.01;-272.25;-175.2;4.82;2.62;30.01;-10.6;49.26;-0.37;85.13;4.75;13.7;-171.04;-33.25;129.03;25.17;4.11;-2.04
2;-110.98;-6.03;11.89;87.11;55.1;-17.35;-15.01;-306.01;-176.9;5.16;19.51;28.63;-10.67;60.57;-0.35;93.42;5.01;13.46;-228.43;-32.66;116.92;24.49;4.43;-1.87
2;-118.05;-9.05;11.03;82.49;51.46;-15.08;-14.71;-293.92;-161.61;9.38;-5.52;32.51;-11.05;46.54;2.95;97.92;5.07;13.16;-241.12;-28.71;139.63;21.08;4.36;-1.84
2;-117.79;-10.56;13.23;88.8;58.64;-17.26;-18.16;-307.94;-196.4;9.58;2.24;33.31;-10.44;60.79;6.47;97.99;5.78;13.34;-231.08;-35.86;144.34;29.38;5.04;-1.96
