label;gyro_z_avg;gyro_x_avg;acc_y_stdev;gyro_z_stdev;gyro_x_stdev;acc_x_min;acc_z_min;gyro_z_min;gyro_x_min;acc_z_max;gyro_z_max;acc_x_max;acc_y_avg;gyro_x_max;gyro_y_avg;gyro_y_stdev;acc_z_stdev;acc_x_stdev;gyro_y_min;acc_y_min;gyro_y_max;acc_y_max;acc_x_avg;acc_z_avg
0;89.69;42.8;4.63;176.91;89.65;-10.01;-9.36;-187.21;-114.68;5.32;336.12;14.14;-8.98;188.82;-3.25;110.98;3.58;6.65;-262.89;-19.13;187.49;-0.78;4.71;-2.48
0;-86.5;-27.39;3.82;48.74;14.73;-7.03;-7.47;-186.46;-93.12;10.6;-27.45;18.21;-11.32;-9.44;6.05;56.58;3.25;5.12;-150.72;-25.22;74.43;-3.53;0.7;0.98
0;92.14;42.84;5.07;189.8;85.05;-11.77;-10.45;-197.75;-85.58;4.77;358.48;16.54;-9.27;189.49;0.19;121.37;3.78;7.48;-288.14;-19.9;170.76;-0.26;4.45;-2.13
0;-88.92;-35.41;2.25;48.19;17.31;-13.66;-6.82;-181.62;-81.02;5.86;-33.89;20.03;-11.49;-12.96;-2.83;78.64;2.96;6.3;-260.3;-17.3;84.45;-5.43;0.8;0.87
0;85.11;39.74;4.09;177.21;86.2;-7.72;-7.18;-190.6;-82.47;5.03;326.62;12.36;-8.98;168.83;5.42;87.85;3.26;5.5;-165.62;-18.11;150.63;0.26;4.72;-1.94
0;-85.51;-28.71;1.24;44.94;12.04;-4.16;-2.19;-175.62;-63;5.62;-42.77;14.86;-11.28;-17.07;4.64;72.7;1.95;5.15;-200.24;-13.86;69.81;-7.86;1.2;0.73
0;87.55;47.33;4.93;177.81;87.8;-12.01;-11.19;-182.41;-74.7;5.53;341.07;15.78;-9.31;201.66;-1.1;123.43;4.04;7.21;-297.7;-20.24;156.53;0.48;4.65;-2.37
0;-89.81;-32.34;3.07;49.09;15.23;-13.18;-4.48;-191.99;-68.33;5.9;0.41;22.31;-11.58;-14.15;-1.87;70.75;2.62;5.9;-220.77;-21.21;80.22;-5.43;0.26;0.76
0;98.6;62.37;4.63;179.99;92.95;-12.85;-9.41;-200.95;-91.2;5.28;328.18;15.98;-9.16;203.56;7.92;126.31;3.79;7.98;-295.65;-18.97;174.28;-0.34;4.95;-2.82
0;-93.29;-35.47;2.43;40.07;13.17;-14.27;-4.82;-173.84;-68.29;5.75;-19.47;23.78;-11.38;-19.18;5.16;95.15;2.22;6.06;-331.07;-17.62;121.44;-7.03;0.45;0.89
0;94.16;47.68;4.42;177.76;94.56;-8.93;-9.86;-199.44;-98.6;4.23;333.27;14.36;-9.01;216.84;-9.8;113.77;3.59;7.07;-246.47;-17.59;199.54;-0.66;4.55;-2.29
0;-88.53;-39.41;2.27;50.08;20.55;-22.09;-6.64;-190.82;-88.09;6.71;-12.04;27.22;-11.56;-17.76;-1.37;96.63;2.9;7.99;-311.47;-18.71;110.25;-6.16;0.63;0.73
0;94.11;47.14;4.41;192.59;99.18;-10.85;-8.11;-205.19;-105.58;6.23;373.67;14.69;-9.01;198.63;8.87;107.44;3.67;6.82;-235.08;-18.29;175.09;-1.1;4.71;-2.17
0;-85.81;-35.59;2.86;49.36;16.16;-16.26;-4.99;-189.35;-82.77;5.6;3.97;26.1;-11.51;-14.84;-2.27;84.66;2.15;6.66;-277.99;-19.41;116.09;-6.03;0.17;1.07
0;87.28;45.2;5.08;175.78;94.5;-10.65;-10.08;-188.28;-110.82;4.82;333.06;14.88;-8.75;196.18;-11.26;110.38;3.91;7.13;-265.02;-20.07;191.58;1.15;4.4;-2.46
0;-89.36;-39;3.99;47.3;19.44;-12.13;-7.35;-187.33;-102.81;7.45;26.9;26.38;-11.51;-23.05;7.56;80.46;3.08;6.79;-229.4;-28.23;100.48;-0.94;0.32;1.16
0;82.75;39.02;4.6;176.99;89.18;-11.1;-8.34;-204.79;-94.12;4.39;332.69;12.96;-9.27;174.88;6.06;102.34;3.4;6.62;-216.93;-19.74;207.37;0.5;4.39;-1.9
0;-90.45;-31.26;4.17;44.75;14.96;-20.07;-5.62;-173.35;-81.16;6.69;-17.32;30.1;-11.34;-14.21;4;72.18;2.56;8.11;-240.76;-28.31;82.97;0.52;0.27;0.76
0;89.8;49.18;4.13;182.33;98.11;-8.56;-7.39;-203.89;-81.23;4.07;329.78;12.59;-9.17;222.34;-6.88;92.89;3.3;6.22;-182.53;-18.5;142.04;-0.25;4.89;-2.26
0;-87.93;-40.55;2.5;50.82;17.8;-18.22;-4.01;-196.42;-95.08;5.26;12.25;25.64;-11.49;-22.56;6.53;94.47;2.1;7.1;-308.36;-18.59;171.46;-7.84;-0.03;1.03
0;88.77;54.22;4.32;191.36;114.49;-8.28;-8.44;-211.75;-96.08;5.77;322.18;13.24;-8.48;252.42;-0.55;117.79;3.95;6.83;-190.6;-18.56;239.46;-1.26;4.8;-2.23
0;-86.17;-38.53;2.34;48.6;17.83;-15.6;-4.84;-192.81;-91.03;3.94;-20.83;21.77;-11.46;-21.72;-3.7;87.73;2.28;5.94;-278.83;-19.39;122.84;-6.48;0.88;0.74
0;87.73;35.66;4.93;175.14;93.69;-8.18;-8.31;-182.68;-99.9;5.55;318.42;13.46;-8.95;183.77;-2.15;99.44;3.38;6.4;-217.83;-19.6;211.81;-0.24;4.59;-2.12
0;-85.87;-27.22;3.34;47.52;14.64;-7.54;-8.82;-184.16;-71.31;11.73;-29.29;16.43;-11.21;-15.67;6.91;65.1;3.79;5.65;-173.57;-23.01;97.98;-1.96;0.76;0.93
0;85.08;45.99;4.78;186.12;101.9;-11.46;-7.75;-200.33;-101.95;4.16;322.85;14.74;-9.06;220.97;-13.82;101.96;3.61;7.33;-233.84;-20.47;151.87;0.13;4.62;-2.77
0;-86.1;-32.36;3.46;50.2;16.68;-9.67;-6.05;-185.16;-84.1;4.79;6.39;20.37;-11.44;-14.61;13.85;76.62;2.63;5.58;-209.4;-25.48;128.98;-3.41;0.85;0.95
0;86.42;51.38;4.8;182.15;97.49;-12.64;-9.6;-185.69;-89.76;4.46;319.27;13.26;-8.71;211.08;6.49;114.37;3.67;6.9;-244.17;-19.42;182.4;-0.29;4.63;-2.56
0;-86.31;-27.31;1.96;47.95;16.42;-18.96;-5.94;-189.25;-61.26;3.72;-11.61;23.62;-11.42;-11.78;-1.1;94.65;2.44;7;-298.92;-17.08;81.01;-7.18;0.51;0.55
0;84.84;53.55;5.01;187.53;92.13;-9.02;-7.97;-188.81;-81.81;3.21;340.27;13.67;-9.23;204.61;-0.71;103.58;3.15;6.7;-247.03;-19.3;137.55;0.12;5.43;-2.39
0;-87.39;-35.89;2.58;46.88;11.53;-24.79;-2.8;-176;-66.93;6.57;52.94;28.24;-11.37;-23.95;4.34;86.86;2.23;7.79;-309.95;-19.53;161.64;-7.74;-0.09;1.36
0;88.25;47.3;4.57;177.41;93.69;-10.42;-8.53;-181.67;-91.98;5;323.39;14.52;-8.77;221.42;2.48;111.43;3.4;7.08;-222.51;-19.23;201.55;0.21;4.68;-2.25
0;-86.61;-30.3;3.56;47.05;15.19;-23.8;-6.47;-178.6;-81.9;4.8;7.59;34.08;-11.36;-10.58;0.88;95.38;2.53;9.04;-320.41;-26.81;92.64;-2.57;0.76;0.76
0;80.27;43.14;4.56;173.9;97.6;-9.65;-8.35;-183.53;-88.84;3.98;337.97;14.92;-9.27;235.63;-14.5;123.79;3.51;7.34;-263.56;-19.52;188.6;-0.99;4.32;-2.36
0;-85.16;-32.35;3.73;48.29;19.33;-4.87;-3.34;-184.78;-94.51;7.62;-21.4;12.98;-11.31;-11.78;7.17;61.74;2.32;4.73;-191.43;-24.14;127.4;-0.47;0.62;1.13
0;95.26;43.65;4.44;183.14;95.65;-7.37;-7.26;-196.76;-95.54;7.6;347.18;16.04;-9.17;199.93;2.74;88.6;3.93;6.49;-147.17;-20.67;163.57;-1.33;5.47;-2.14
0;-91.36;-34;2.27;48.43;13.35;-13.56;-4.36;-188.5;-76.05;4.87;19.9;21.45;-11.34;-20.89;9.08;74.6;2.19;5.9;-210.05;-21.03;116.97;-7.43;-0.09;1.33
0;88.82;51.53;5.37;179.26;93.47;-13.36;-13.08;-193.37;-101.56;5.23;343.51;17.38;-8.96;216.21;-18.2;132.03;4.25;7.86;-338.51;-20.59;183.9;2.34;4.65;-2.78
0;-87.73;-41.81;4.24;53.39;15.37;-17.52;-4.69;-186.16;-101.15;6.27;66.08;37.29;-11.63;-28.36;11.72;85.03;2.86;8.65;-262.38;-28.92;162.06;-1.76;-0.07;1.37
0;95.88;49.58;5.42;189.34;95.52;-10.45;-9.03;-192.4;-104.99;5.29;345.59;15.61;-8.99;216.01;-2.53;123.17;3.72;7.45;-231.62;-20.65;227.98;1.09;4.66;-2.59
0;-95.09;-41.8;3.19;50.37;17.18;-15.81;-6.15;-187.65;-95.36;10.22;15.37;26.03;-11.54;-23.44;17.48;86.91;2.9;6.4;-268.53;-22.78;184.72;-4.57;0.26;1.14
0;111.49;55.18;3.31;167.83;89.79;-8.76;-7.73;-180.98;-84.11;5.91;327.16;14.64;-8.8;197.88;-15.85;94.74;3.15;6.5;-173.76;-17.5;143.67;-2.32;5.6;-2.37
0;-89.57;-37.47;2.26;46.21;13.71;-12.32;-3.08;-186.27;-80.5;5.78;2.63;21.43;-11.53;-25.11;2.44;74.96;2.03;5.5;-245.09;-20.27;102.16;-8.03;-0.05;0.92
0;81.54;50.19;3.74;173.67;94.93;-9.35;-8.05;-182.35;-91.25;6.83;307.03;13.17;-8.88;194.61;4.02;114.69;3.87;6.31;-231.43;-18.75;169.85;-2.06;4.66;-2.27
0;-89.05;-35.24;3.1;43.79;13.34;-14.23;-5.16;-172.99;-83.46;5.08;15.65;27.79;-11.37;-24;6.73;83.1;2.36;6.41;-271.39;-24.32;114.37;-4.1;0.15;0.85
0;88.55;50;4.09;178.21;90.27;-9.46;-8.99;-195.91;-77.51;4.97;314.5;12.9;-9.17;193.05;-1.71;106.01;3.66;6.43;-231.29;-19.36;173.6;-1.61;5;-2.37
0;-89.89;-34.74;1.77;45.42;14.13;-8.26;-3.94;-183.67;-77.94;5.13;-18.13;17.04;-11.37;-20.74;-0.74;71.39;2.18;4.64;-227.2;-17.35;114.52;-7.98;0.37;0.93
0;90.03;45.93;4.3;179.2;96.76;-10.66;-9.09;-195.72;-92.02;4.11;327.42;14.71;-9.2;212.74;-7.14;106.95;3.49;6.89;-251.91;-19.27;184.55;-0.47;4.96;-2.34
0;-88.19;-36.99;1.43;43.2;12.98;-9.92;-4.23;-177.61;-74.7;5.34;-19.79;17.33;-11.29;-23.25;4.14;70.57;2.03;4.53;-209.46;-14.94;118.76;-7.68;0.41;0.99
0;88.18;42.51;4.37;174.83;94.4;-9.31;-8.66;-188.33;-98.27;5.07;318.87;13.89;-9;204.96;0.11;102.73;3.56;6.59;-237.48;-19.54;162.54;-0.4;4.63;-2.22
0;-91.13;-34.22;2.97;44.5;12.85;-10.19;-6.05;-175.07;-70.18;9.93;1.18;21.01;-11.31;-23.2;4.59;67.77;2.87;5.16;-222.29;-24.95;113.31;-5.49;0.48;1.11
0;84.18;47.64;4.49;177.06;93.2;-11.11;-8.62;-195.96;-92.75;3.85;323.32;14.51;-9.08;202.83;-2.63;114.31;3.43;7.2;-252.44;-19.19;165.9;-0.61;4.24;-2.4
0;-100.27;-35.28;2.44;51.15;14.49;-12.06;-5.7;-197.31;-70.33;5.32;-4.58;23.71;-11.72;-20.43;14.46;85.13;2.53;6.09;-272.9;-20.68;137.79;-8.87;0.45;1.24
0;113.93;58.7;3.82;160.88;92.41;-11.85;-10.16;-167.85;-80.29;2.43;335.34;14.72;-8.35;209.99;-11.28;124.04;3.21;6.83;-290.17;-16.78;159.49;-0.88;5.98;-3.39
0;-88.01;-31.66;2.3;50.18;13.8;-14.07;-5.5;-189.96;-66.29;5.23;6.46;26.8;-11.5;-13.31;4.21;73.32;2.5;6.66;-237.54;-18.79;123.72;-6.56;0.1;0.89
0;90.04;50.72;4.87;178.91;92.62;-11.81;-9.45;-195.84;-87.92;4.66;332.66;15.01;-8.8;208.08;0.43;116.71;3.84;7.21;-257.13;-19.24;181.52;0.57;4.91;-2.91
0;-88.99;-31.74;3.03;47.81;12.13;-12.58;-4.97;-177.36;-71.1;4.95;26.29;22.85;-11.55;-13.92;-0.61;74.58;2.3;6.19;-223.26;-24.34;80.8;-7.41;0.3;1.26
0;84.32;48.82;4.05;178.3;84.15;-10.23;-8.06;-189.23;-94.46;4.16;308.5;15.16;-8.65;185.63;6.9;107.68;3.29;6.2;-253.05;-16.99;141.73;-0.21;4.57;-2.13
0;-99.99;-39.39;2.57;54.21;17.79;-20.69;-5.33;-206.53;-82.73;6.59;9.41;29.57;-11.83;-21.75;3.12;92.13;2.85;8.37;-301.27;-20.98;96.47;-8.62;-0.08;1.31
0;95.29;53.13;5.75;193.41;99.66;-13.54;-9.24;-219.8;-92.73;3.03;364.74;16.27;-9.15;216.11;-7.97;113.93;3.98;7.91;-259.56;-22.48;151.66;1.78;5.5;-3.12
0;-90.15;-35.23;2.12;53.97;16.54;-12.12;-4.65;-203.3;-80.54;6.85;7.39;20.99;-11.5;-19.25;1.31;76.42;2.68;6.12;-215.55;-19.21;112.33;-7.27;-0.19;1.49
0;97.97;54.48;4.72;192.72;101.09;-7.99;-9.81;-211.93;-85.39;6.21;337.07;15.03;-8.83;225.74;6.38;119.16;4.12;6.96;-246.54;-19.93;169.04;-0.72;5.62;-2.7
0;-97.38;-41.45;2.42;52.87;17.15;-14.16;-4.16;-203.37;-90.41;6.07;-7.41;19.9;-11.88;-24.87;-6.51;88.43;2.87;6.64;-273.55;-19.81;92.2;-6.88;0.17;1.02
0;89;52.47;5.11;190.88;99.68;-13.52;-8.68;-208.22;-89.74;5.84;356.52;17.08;-9.33;211.81;9.61;122.17;3.79;8.05;-246.34;-19.35;185.15;1.81;5.32;-2.7
0;-105.79;-39.68;3.59;55.79;15.46;-17.21;-5.56;-211.71;-74.47;7.31;47.82;28.98;-12;-14.38;5.86;86.57;2.82;7.22;-274.65;-25.59;115.68;-4.35;-0.86;1.84
0;122.18;57.84;4.25;187.57;89.44;-13.44;-7.03;-214.39;-94.09;3.59;351.89;16.72;-8.62;196.59;-12.67;126.19;3.39;8.01;-248.03;-17.45;216.03;0.55;5.66;-2.96
0;-98.61;-40.68;2.71;52.85;15.06;-13.64;-6.86;-196.1;-86.09;6;-4.22;27.82;-11.76;-24.74;-1.04;77.46;3.22;7.25;-290.79;-21.9;74.95;-6.57;0.26;1.47
0;85.06;44.48;5.32;184.07;94.58;-11.45;-6.78;-192.96;-102.91;5.68;335.51;15.18;-9.33;192.48;4.53;113.87;3.29;6.82;-220.42;-20.68;159.39;2.39;5.06;-2.67
0;-92.03;-34.83;3.03;53.11;12.64;-7.5;-4.44;-195.2;-73.75;6.65;-0.03;20.28;-11.68;-18.62;4.37;69.32;2.72;5.95;-183.72;-21.86;112.28;-4.46;0.18;1.31
0;96.78;46.92;5.48;192.68;92.77;-10.77;-7.32;-212.77;-97.18;4.83;360.91;17.98;-9.18;213.97;6.84;118.96;3.71;8.01;-230.88;-19.13;196.05;2.93;5.09;-2.82
0;-95.19;-35.39;2.34;53.86;13.36;-16.17;-7.18;-203.44;-79.05;6.59;-7.47;20.4;-11.76;-21.03;-7.14;90.35;3.34;7.26;-278.52;-19.68;75.18;-6.68;0.01;1.29
0;90.31;46.3;5.64;197.92;104.61;-9.57;-7.88;-214.79;-112.09;5.52;362.84;15.46;-8.83;222.18;-0.47;96.4;3.74;7.18;-182.29;-20.5;177.4;3.05;5.3;-2.7
0;-90.08;-29.86;3.31;53.79;16.73;-11.78;-4.34;-191;-94.21;5.84;-11.56;28.86;-11.62;-6.62;5.13;65.82;2.31;7.61;-182.33;-23.82;91.03;-5.07;0.61;0.93
0;96.45;44.99;4.77;199.95;93.28;-11.63;-8.45;-213.16;-108.04;4.8;359.55;16.43;-9.06;205.33;-5.99;126.62;4.07;7.62;-256.94;-19.58;204.34;-0.24;4.76;-2.4
0;-97.34;-37.72;3.71;56.04;15.05;-9.92;-5.38;-197.95;-88.48;6.06;40.83;26.02;-11.88;-23.68;5.49;81.3;2.91;7.01;-281.91;-26.98;82.49;-5.36;0.55;1.36
0;86.47;43.74;5.25;193.73;92.71;-11.75;-7.26;-208.51;-95.91;5.09;345.89;16.74;-9.06;205.49;-2.89;109.9;3.82;7.38;-223.42;-20.77;153.48;2.78;4.73;-2.54
0;-87.76;-35.05;2.77;52.43;14.48;-8.98;-5.35;-182.47;-84.83;6.46;14.5;23.3;-11.52;-15.28;1.4;87.86;2.67;6.56;-248.02;-19.39;107.72;-4.98;0.96;1.08
0;89.57;50.84;4.31;188.37;100.57;-9.47;-7.47;-213;-106.78;5.71;323.63;13.87;-9.09;216.79;9.41;112.42;3.15;6.77;-218.7;-18.66;169.8;-0.98;5.15;-2.66
0;-98.6;-37.88;2.9;53.9;17.21;-15.44;-6.52;-194.88;-89.46;9.68;9.84;26.1;-11.82;-22.17;-3.86;90.28;3.29;7.57;-285.59;-22.38;89.01;-7.13;0.41;1.36
0;86.93;50.34;5.75;196.78;106.21;-7.02;-7.28;-217.3;-108.48;4.92;337.04;13.01;-8.81;236.9;1.59;101.06;3.32;6.73;-205.85;-22.22;167.7;2.99;4.8;-2.55
0;-90.67;-35.98;2.3;55.13;16.4;-8.22;-5.3;-207.55;-88.49;5.72;-23.04;20.54;-11.67;-19.14;-5.2;106.76;2.77;7.4;-300.84;-17.99;107.39;-5.76;0.65;1
0;95.22;38.69;5.36;194.66;90.24;-8.6;-7.41;-197.35;-108.04;4.87;361.87;14.48;-8.68;183.82;2.35;110.15;3.42;6.7;-207.2;-20.66;220.29;1.58;5.07;-2.4
0;-95.2;-31.77;4.6;53.46;15.09;-7.88;-6.38;-189.06;-93.45;8.5;-4.03;19.06;-11.81;-7.19;2.98;79.99;3.28;7.42;-189.86;-27.49;109.51;-1.13;0.52;1.29
0;91.65;38.27;5.15;183.12;84.85;-10.37;-9.3;-205.08;-128.7;4.38;338.22;16.38;-8.65;186.77;-7.95;101.87;3.86;7.05;-223.65;-19.11;144.92;2.37;4.7;-2.87
0;-95.91;-31.18;4.49;53.12;18.5;-7.73;-8.2;-192.23;-117.41;9.95;-8.2;23.3;-11.79;-11.38;9.09;64.11;3.62;6.32;-199.25;-29.95;79.52;-1.59;0.94;1.08
0;90.6;46.08;5.77;197.3;100.47;-12.33;-9.27;-208.98;-128.67;4.46;364.01;16.1;-9.11;220.43;-12.35;110.09;3.64;7.47;-257.12;-21.17;167.61;2.3;4.88;-2.85
0;-90.81;-37.6;3.38;56.75;17.07;-6.82;-5.54;-195.63;-85.89;8.65;-5.27;17.43;-11.56;-15.82;12.02;79.83;3.17;6.95;-179.79;-24.26;135.05;-4.16;0.64;1.33
0;99.03;57.64;5.33;194.56;104.98;-10.52;-8.91;-201.19;-94.17;5.52;343.13;14.28;-8.89;233.19;7.79;117.78;3.99;7.02;-235.47;-21.2;172.02;1.42;5.06;-2.55
0;-96.09;-44.69;2.12;53.84;15.82;-13.03;-5.44;-200.43;-86.73;6.55;5.82;21.18;-11.7;-23.54;-3.82;111.08;2.93;7.32;-341.09;-18.13;99.36;-8.61;0.24;1.27
0;89.99;44.88;5.47;193.44;99.3;-12.76;-8.11;-209.15;-99.19;6.44;347.97;14.26;-9.34;212.45;0.91;101.97;3.7;7.08;-196.98;-21.46;165.48;1.9;4.38;-2.06
0;-94.67;-38.35;2.79;53.19;16.32;-14.37;-6.29;-202.77;-79.12;7.27;-14.49;20.15;-11.52;-21.88;-4.33;84.56;3.27;6.66;-253.29;-21.5;77.83;-6.07;0.55;1.32
0;92.01;42.39;4.7;188.57;93.69;-8.83;-6.74;-199.8;-96.8;5.39;348.29;15.13;-9.14;192.5;5.82;97.33;3.5;6.8;-182.48;-18.56;159.9;0.71;4.69;-2.19
0;-93.42;-34.22;2.61;53.98;18.63;-7.69;-5.57;-201.9;-87.3;9.49;-15.69;16.33;-11.61;-15.67;2.1;75.92;3.2;6;-221.75;-20.69;89.34;-5.16;0.8;1.37
0;91.9;50.96;5.88;191.98;103.19;-9.59;-7.7;-205.88;-112.96;4.56;339.46;15.13;-8.93;235.78;-2.76;111.01;3.43;6.89;-210.84;-21.65;183.88;2.9;4.82;-2.87
0;-96.64;-31.08;4.01;50.91;15.45;-7.18;-7.87;-187.58;-98.61;10.3;-24.83;16;-11.58;-11.52;9.64;71.65;3.55;6.17;-183.21;-28.02;100.2;-3;0.77;1.1
0;92.43;51.56;4.79;202.28;97.65;-8.33;-8.78;-207.81;-85.35;4.64;369.33;13.64;-9.02;218.03;-2.32;111.1;3.56;6.75;-228.84;-19.07;199.13;-0.85;5.06;-2.4
0;-93.85;-37.81;2.39;50.33;17.46;-8.2;-4.24;-199.66;-81.32;6.56;-32.41;16.89;-11.8;-18.33;-6.22;81.28;2.82;5.45;-268.59;-18.94;92.24;-7.57;0.74;0.92
0;94.76;51.34;5.47;203.15;103.15;-9.47;-6.71;-230.01;-102.95;6.45;366.15;14.49;-9.44;219.4;8.96;109.45;3.63;6.86;-213.24;-21.12;160.91;1.5;4.95;-2.37
0;-96.49;-38.17;2.06;49.39;18.49;-12;-4.06;-194.19;-79.89;6.46;-26.93;21.69;-11.67;-18.96;3.24;74.72;2.39;6.56;-234.15;-19.13;95.26;-8.26;0.62;0.9
0;102.4;55;5.08;190.94;103.18;-9.79;-7.5;-206.04;-77.83;3.58;360.04;14.69;-9.39;233.66;-2.82;105.31;3.25;6.97;-214.7;-21.61;170.24;0.68;5.42;-2.72
0;-93.2;-35.61;2.55;49.7;13.97;-5.96;-3.92;-186.24;-72.98;4.92;1.89;12.94;-11.58;-22.43;2.46;81.66;2.59;5.19;-233.81;-20.96;79.61;-6.84;0.72;0.75
0;87.29;49.06;5;195.78;97.3;-10.05;-7.61;-199.18;-106.43;5.31;349.8;13.05;-9.13;201.5;1.03;117.15;3.92;6.6;-281.28;-20.74;180.89;-0.1;4.03;-2.39
0;-95.67;-36.69;3.26;48.5;15.83;-9.52;-5.98;-178.11;-98.14;6;14.61;31.94;-11.55;-19.84;4.45;82.27;2.48;7.35;-320.05;-23.81;91.92;-5.36;1.5;0.68
0;88.75;46.89;4.31;187.88;95.51;-7.78;-7.23;-200.19;-96.88;4.22;341.07;12.43;-9.24;201.16;2.92;95.99;3.06;6.04;-200.53;-18.16;141.92;-1.84;4.93;-2.47
0;-94.77;-35.32;2.21;54.3;14.66;-8.42;-3.33;-203.33;-72.9;6.97;9.4;16.11;-11.75;-20.34;-2.16;88.15;2.53;6.01;-256.23;-18.27;77.77;-7.59;0.11;1.28
0;90.56;53.87;5.78;201.68;109.37;-14.65;-8.93;-205.35;-113.03;7.2;355.98;17.53;-8.81;244.63;-3.37;109.14;3.66;7.81;-233.75;-20.47;182.73;2.75;4.71;-2.8
0;-92.02;-39.44;2.27;52.15;16.63;-16.9;-4.66;-187.02;-92.21;6.4;-16.7;30.96;-11.71;-23.04;6.25;98.12;2.84;7.81;-346.02;-20.01;114.52;-8.69;0.81;0.74
0;92.55;47.28;5.17;198.14;102.96;-11.19;-8.1;-197.97;-83.76;5.93;358.96;14.73;-9.42;230.07;-8.5;114.86;3.56;7.25;-232.43;-20.65;153.85;0.58;4.95;-2.79
0;-93.05;-42.53;2.71;49.98;14.63;-8.48;-5.18;-198.61;-85.22;11.36;-16.6;13.54;-11.79;-28.04;2.76;77.3;3.87;5.38;-240.06;-21.97;107.99;-8.5;0.52;1.29
0;87.05;47.04;4.76;194.11;98.67;-10;-8.09;-204.31;-93.18;7.85;341.54;14.34;-9.36;206.16;5.6;109.62;3.68;6.9;-220.99;-19.95;175.47;0.21;4.62;-2.25
0;-94.25;-37.1;2.31;52.75;11.69;-11.13;-3.94;-189.15;-66.94;5.96;-6.62;28.39;-11.57;-19.32;5.9;80.76;2.26;7.25;-280.04;-19.88;105.81;-7.31;0.81;1.03
0;88.54;50.62;4.8;193.33;102.22;-12.13;-8.54;-223.28;-108.13;5.72;349.65;15.06;-9.26;223.46;-3.41;120.94;3.74;7.43;-259.19;-19.04;163.74;-0.54;5.35;-2.9
0;-91.25;-34.24;2.37;49.86;12.29;-14.68;-6.04;-182.11;-80.66;8.46;13.38;23.63;-11.58;-22.32;7.38;74.62;2.93;6.49;-227.15;-20.61;76.95;-7.72;0.49;0.81
0;91.3;53.56;5.4;198.21;93.03;-12.66;-9.28;-194.79;-83.19;7.03;383.12;21.44;-9.55;238.74;-3.41;151.82;4.51;9.25;-307.42;-20.5;237.4;2.57;4.28;-2.53
0;-94.68;-45.36;2.79;50.41;14.5;-16.01;-5.85;-203.81;-86.79;9.86;1.61;29.31;-11.79;-24.02;-2.38;92.91;3.78;7.98;-339.55;-21.8;94.69;-5.62;0.4;1.1
0;88.69;46.52;5;192.73;105.43;-10.93;-7.73;-214.53;-110.2;6.65;343.22;14.52;-9.38;230.5;12.51;106.54;3.67;6.96;-212.03;-20.65;167.24;0.5;5.9;-2.75
0;-94.31;-32.17;1.8;50.91;15.15;-12.46;-5.17;-187.75;-72.8;9.74;17.35;17.53;-11.29;-10.86;-4.14;66.76;3.02;5.32;-213.1;-17.35;72.33;-7.23;-0.11;1.21
0;88.42;54.18;5;192.78;103.84;-10.18;-7.21;-198.5;-79.87;6.04;341.29;15.23;-9.8;228.53;1.39;122.31;3.53;7.18;-228.75;-20.9;179.78;-0.17;5.26;-2.88
0;-91.01;-38.26;2.82;48.13;12.65;-9.92;-8.09;-179.34;-68.9;10;-3.63;17.23;-11.59;-21.09;1.41;73.54;3.57;5.33;-226.42;-20.27;77.56;-6;0.88;1.01
0;90.64;50.42;4.97;189.39;98.02;-11.1;-9.22;-190.49;-75.42;5.49;356.05;14.34;-9.69;221.45;3.2;110.71;3.45;7.26;-236.48;-20.58;154.94;-0.99;5.22;-2.75
0;-88.43;-38.65;2.15;49.05;10.85;-9.3;-4.6;-185.44;-72.41;7.59;11.2;19.38;-11.79;-27.89;-5.41;93.81;3.01;6.36;-282.35;-18.38;115.38;-8.24;0.64;1.05
0;82.18;51.48;5.12;198.41;103.19;-12.32;-7.82;-230.5;-104.75;7.95;338.28;15.63;-9.24;226.68;9.84;114.19;4.06;7.53;-221.21;-20.69;157.43;1.84;4.42;-2.49
0;-99.1;-37.24;2.92;58.87;14.64;-14.23;-4.7;-199.73;-85.87;6.62;9.44;27.57;-12.18;-15.91;9.14;90.45;2.85;7.8;-309.4;-20.13;90.64;-6.44;0.5;0.97
0;116.41;69.25;4.4;181.6;100.26;-8.74;-7.58;-211.94;-88.66;1.44;333.44;14.53;-8.35;234.87;-8.3;117.31;2.81;6.09;-207.01;-19.89;179.79;0.89;6.47;-3.5
0;-92.49;-38.42;2.25;47.62;12;-8.11;-5.49;-190.43;-71.06;8.76;6.4;15.59;-11.59;-24.21;1.6;67.3;3.18;5.14;-227.89;-17.41;57.84;-6.64;0.32;1.33
0;85.45;49.8;4.75;190.34;94.02;-11.34;-7.49;-216.7;-82.1;7.48;334.59;16.53;-9.76;208.84;6.76;109.85;3.94;7.61;-215.92;-19.29;165.6;0.74;4.75;-2.33
0;-89.59;-35.07;1.89;54.25;17.42;-14.44;-4.84;-186.78;-77.57;6.94;-22.24;29.88;-11.46;-16.25;-1.51;83.26;2.47;7.83;-294.66;-16.76;118;-6.92;0.84;0.82
0;84.87;46.35;4.87;185.53;109.43;-10.89;-8.28;-205.3;-107.52;5.08;325.28;15.31;-9.34;250.08;-6.16;117.12;3.39;7.04;-215.78;-19.44;166.6;0.43;5.33;-2.87
0;-97.67;-30.7;3.34;59.58;10.76;-8.08;-4.67;-207.92;-55.81;7.11;18.46;21.75;-11.89;-11.79;19.73;68.3;2.68;6.61;-203.51;-23.16;119.86;-6.09;0.04;1.42
0;109.57;58.28;5.11;176.57;88.74;-10.4;-8.04;-194.08;-78.03;2.92;350.15;15.16;-8.65;219.22;-20.4;127.16;3.19;7.37;-252.23;-20.35;170.52;0.93;5.86;-3.59
0;-88.97;-39.19;2.29;49.56;10.18;-6.96;-4.45;-178.33;-63.76;7.17;15.01;21.72;-11.66;-28.52;11.94;79.39;2.78;5.82;-290.48;-20.41;82.79;-7.85;0.82;1.17
0;86.58;58;4.98;189.22;109.73;-10.78;-8.23;-204.2;-89.13;7.9;318.05;14.76;-9.54;243.32;-1.17;119.14;3.91;7.14;-222.53;-19.89;225.62;2.07;4.86;-2.66
0;-96;-40.32;2.53;45.65;12.24;-8.13;-5.31;-178.78;-72.43;8.64;-15.83;14.71;-11.69;-23.12;5.2;72.48;3.03;5.1;-245.93;-19.35;94.91;-5.6;0.43;1.32
0;84.71;41.4;4.87;195.33;108.41;-11.3;-7.14;-221.71;-119.37;6.36;369.83;14.86;-9.57;245.74;-8.91;108.91;3.54;7.5;-225.38;-19.35;170.35;-0.21;4.94;-2.64
0;-97.79;-38.69;3.11;58.64;16.04;-9.18;-6.53;-202.87;-77.37;11.84;-13.99;15.16;-12.08;-17.28;17.53;79.47;3.82;6.23;-196.16;-21.35;131.52;-6.03;0.26;1.31
0;114.96;65.71;5.36;183.61;105.99;-10.55;-7.99;-237.72;-122.56;4.7;342.74;15.78;-8.55;234.91;-8.82;114.77;3.45;6.81;-211.92;-21.99;171.81;1.75;5.65;-3.27
0;-101.9;-38.78;2.71;56.39;16.61;-12.3;-5.29;-209.9;-72.66;8.61;-23.37;18.91;-11.84;-22.94;9.6;80.63;3.21;6.81;-237.26;-21.17;69.32;-6.71;0.39;1.17
0;106.66;56.13;5.22;183.08;104.18;-10.25;-8.05;-228.58;-115.99;3.1;354.76;16.7;-8.66;239.28;-19.2;122.69;3.31;7.22;-229.23;-20.01;173.14;1.61;5.76;-2.99
0;-87.58;-33.91;3.54;58.58;16.02;-8.37;-7.19;-210.81;-80.47;7.82;19.03;17.12;-11.89;-10.93;7.16;60.51;3.16;6.23;-213.55;-22.73;76.98;-3.49;0.51;1.26
0;92.07;51.07;6.42;199.97;106.08;-10.07;-8.36;-207.45;-97.24;7.64;362.18;18.94;-9.02;241.6;5.66;115.79;4.03;8.05;-247.97;-22.79;180.74;4.11;4.92;-2.48
0;-93.89;-38.09;2.46;47.37;13.8;-8.44;-5.23;-189.46;-76.92;6.5;-27.29;16.98;-11.72;-21.2;1.87;76.51;2.68;5.44;-245.9;-17.82;77.95;-7.24;0.98;0.93
0;92.48;50.55;5.23;200.18;104.05;-10.15;-9.9;-219.38;-121.67;6.44;357.25;14.92;-9.25;226.21;-4.92;107.05;3.8;6.81;-244.45;-20.42;157.54;0.22;5.05;-2.8
0;-92.87;-36.41;2.77;52.43;14.51;-7.57;-5.99;-193.34;-86.61;7.3;13.69;16.82;-11.6;-21.96;9.03;74.47;3.01;6.22;-198.44;-21.69;96.72;-7.19;0.59;1.04
0;81.69;48.52;5.91;189.6;97.12;-10.97;-9.32;-203.64;-105.06;5.43;343.59;15.51;-9.17;224.18;-3.04;124.63;3.84;7.35;-262.74;-21.77;167.79;2.37;5.01;-3.22
0;-88.77;-33.63;3.38;52.44;10.87;-8.74;-4.44;-191.06;-65.96;10;34.66;15.88;-11.67;-16.39;11.95;74.32;3.04;5.68;-195.21;-24.2;95.51;-3.46;0.79;1.2
0;84.42;49.83;5.08;189.27;98.73;-12;-8.28;-201.38;-101.26;5.97;336.86;15.3;-9.26;216.75;2.99;117.99;3.8;7.2;-262.18;-20;157.47;0.5;4.89;-2.87
0;-87.19;-31.42;2.76;52.33;15.25;-6.77;-4.24;-193.58;-80.75;5.61;-6.03;17.32;-11.64;-14.9;-4.03;74.69;2.42;5.9;-187.67;-18.58;72.85;-5.12;0.9;0.97
0;90.44;43.07;5.78;201.79;98.98;-10.02;-7.54;-208.52;-95.96;5.09;386.62;14.58;-9.18;220.89;-0.33;100.64;3.45;6.66;-200.88;-22.31;159.07;1.89;4.77;-2.6
0;-93.42;-34.6;4.05;59.39;16.44;-7.76;-7.12;-213;-85.17;7.9;0.24;21.62;-12.09;-9.77;4.39;64.73;3.65;6.53;-186.99;-27.34;67.09;-4.06;0.36;1.33
0;89.31;51.68;5.68;200.82;109.08;-9.67;-7.6;-212.48;-101.16;6.07;345.49;13.44;-8.97;230.33;4.81;105.39;3.78;6.51;-214.79;-21.2;163.94;2.79;5.01;-2.86
0;-94.84;-38.48;2.37;49.54;14.99;-6.02;-3.48;-194.36;-82.38;6.88;-25.52;16.9;-11.57;-22.01;1.33;72.31;2.73;5.43;-243;-18.76;91.84;-7.15;1.08;1.16
0;92.72;51.64;5.68;201.32;100.95;-8.43;-8.99;-204.39;-84.38;6.11;360.73;15.03;-9.14;228.1;9.36;104.4;3.65;6.71;-212.03;-22.05;163.5;1.62;5.03;-2.48
0;-94.92;-36.95;3.51;52.37;13.21;-9.74;-4.85;-198.8;-70.89;7.14;-13.18;18.33;-11.79;-18.42;-6.52;84.57;2.89;6.31;-255.93;-24.54;69.31;-3.2;0.6;1.2
0;84.02;48.5;5.73;195.1;101.85;-11.14;-7.75;-227.35;-93.15;6.34;333.72;15.24;-9.49;227.16;-1.59;124.48;4.06;7.51;-291.69;-21.78;175.63;1.85;4.76;-2.68
0;-91.08;-34.92;2.16;55.47;16.93;-7.52;-6.29;-197.01;-86.9;7.65;6.72;26.84;-11.55;-19.76;6.41;75;2.96;6.39;-315.6;-19.21;70.11;-6.52;1.04;1.16
0;87.83;49.23;5.61;198.24;108.69;-12.15;-8.24;-222.81;-125.81;6.04;361.8;14.91;-9.4;234.01;1.89;116.35;3.62;7.6;-234.56;-21.9;166.1;0.64;5.24;-3.04
0;-90.69;-31.53;4.04;54.69;13.25;-15.19;-4.97;-183.28;-75.45;11.91;10.89;21.75;-11.65;-16.2;4.63;83.61;3.39;7.06;-237.81;-27.15;84.17;-2.8;0.94;0.8
0;84.39;44.15;5.36;191.2;92.86;-9.15;-8.04;-224.93;-112.28;5.91;344.42;15.58;-9.26;204.47;-1.78;101.89;3.7;7.06;-227.05;-21.12;169.89;0.39;5.51;-2.69
0;-90.71;-35.34;2.6;52.02;13.65;-11.33;-3.57;-188.64;-65.34;8.31;36.75;20.83;-11.54;-11.91;4.01;89.71;2.98;6.93;-257.59;-21.35;68.88;-8.03;0.47;1.19
0;89.43;58.36;5.42;193.26;100.79;-9.51;-7.63;-204.46;-100.3;6.5;328.19;18.11;-9.41;243.54;10.37;116.38;3.51;6.9;-259.61;-21.91;206.48;2.42;5.66;-2.98
0;-100.75;-40.77;2.91;52.15;13.62;-24.68;-2.92;-191.8;-76.05;7.98;29.49;24.38;-11.74;-19.27;-4.96;101.83;2.97;7.91;-332.62;-21.43;101.88;-4.51;-0.97;1.63
0;91.01;53;5.54;190.52;105.54;-11.61;-9.42;-213.11;-99.73;4.4;345.93;14.89;-9.1;216.25;-5.69;108.88;4.08;6.97;-217.04;-21.74;149.33;0.75;5;-2.95
0;-95.58;-37.24;2.33;51.74;12;-7.51;-4.09;-194.16;-69.79;7.25;14.24;21.01;-11.57;-24.51;13.33;75.37;2.86;5.8;-245.14;-19.11;97.22;-7.83;0.02;1.32
0;90.41;58.68;4.49;187.02;108.6;-9.67;-8.5;-202.37;-98.52;4.84;319.42;12.86;-9.33;235.76;-3.23;108.71;3.68;6.81;-209.64;-21.25;180.72;-1.37;5.36;-3.07
0;-97.85;-37.91;2.42;49.12;12.77;-6.9;-5.46;-189.5;-71.19;7.26;17.31;15.51;-11.57;-24.4;6.12;65.08;2.96;4.92;-214.53;-19.14;69.73;-7.27;0.16;1.33
0;84.71;49.49;5.17;184.77;105.23;-11.45;-7.73;-201.32;-115.39;5.76;334.77;14.86;-9.88;227.05;-9.02;123.28;3.66;7.62;-233.56;-21.3;187.01;0.6;4.6;-2.98
0;-93.96;-39;2.64;56.53;11.69;-9.04;-7.31;-195.61;-69.29;9.86;17.45;25.39;-11.6;-25.25;11.28;70.26;3.59;6.65;-239.78;-21.66;89.11;-6.59;0.48;1.1
1;88.44;41.12;7.66;192.06;99.49;-12.01;-8.72;-253.46;-175.76;13.04;359.41;15.58;-8.19;189.05;-20.61;125.35;4.34;7.26;-235.38;-36.43;238.33;4.84;6.69;-3.73
1;-105.75;-28.79;6.13;59.05;36.5;-10.71;-9.46;-228.93;-108.45;10.84;-27.24;28.38;-11.17;15.2;25.55;67.91;4.95;9.22;-183.48;-27.75;112.47;7.35;2.38;-0.34
1;89.82;52.84;7.41;186.44;103.11;-9.64;-8.84;-204.52;-109.71;4.37;354.91;18.19;-8.02;212.16;-8.88;120.98;4.29;6.98;-185.44;-22.53;257.73;2.66;7.28;-4.64
1;-105.04;-31.54;6.97;57.08;27.87;-7.72;-9.21;-211.56;-78.89;9.4;-15.31;25.27;-11.91;10.14;8.35;81.06;5.24;8.86;-200.94;-31.13;152.85;3.74;2.26;0.43
1;82.1;46.32;6.31;203.85;97.4;-7.85;-8.47;-309.85;-131.42;10.43;368.36;18.15;-7.78;199.45;-3.95;117.19;4.41;7.33;-181.54;-20.91;244.73;1.84;7.26;-3.54
1;-91.67;-19.8;5.85;48.7;27.95;-10.37;-13.17;-188.11;-91.64;5.64;-28.35;36.17;-11.88;12.82;18.82;65.54;5.13;10.94;-191.73;-21.06;148.73;-0.86;2.12;-1.01
1;68.5;41.56;5.91;201;99.17;-9.4;-10.45;-224.93;-97.81;5.26;354.24;20.43;-6.94;229.88;-3.81;118.11;3.89;7.56;-158.34;-21.19;215.35;4.35;7.35;-3.95
1;-98.66;-34.87;5.51;41.15;26.67;-10.1;-8.9;-177.32;-97.87;6.14;-35.82;13.93;-12.49;1.38;14.86;61;4.21;7.43;-180.04;-22.6;88.57;-4.66;2.22;-0.25
1;86.3;50.79;6.59;191.34;109.39;-9.9;-10.46;-232.61;-147.31;7.83;348.69;18.22;-7.99;232.11;-4.01;104.98;3.62;6.59;-154.03;-27.8;205.99;5.9;7.16;-4.52
1;-105.13;-31.64;6.49;60.99;29.95;-8.83;-8.63;-244.11;-77.32;9.92;-37.69;22.19;-11.99;-1.71;32.08;74.04;4.34;8.52;-178.15;-34.05;101.54;4.7;2.16;-0.44
1;101.25;37.4;5.07;202.08;77.79;-10.02;-9.3;-277.97;-100.97;6.32;386.21;17.39;-7.06;148.65;-6.07;147.77;3.83;7.74;-256.43;-18.77;274.85;1.74;6.36;-3.62
1;-104.5;-18.6;5.58;52.08;21.93;-8.94;-8.43;-221.69;-62.33;6.83;-42.52;29.33;-12.1;4.36;3.09;94.32;4.05;9.93;-292;-22.37;88.4;-2.54;4.05;-0.92
1;73.44;34.34;5.7;194.25;88.54;-13.61;-8.21;-244.94;-139.64;7.05;360.09;15.06;-7.08;174.78;-13.87;118.48;3.98;7.65;-193.37;-20.47;266.3;5.33;6.57;-3.52
1;-99.56;-29.79;6.36;56.58;24.72;-7.84;-7.84;-216.11;-71.16;5.91;-30.58;19.39;-12.18;2.43;19.54;64.69;4.22;8.26;-121.3;-27.58;126.56;-0.53;2.8;0.01
1;79.16;45.96;7.06;202.67;115.02;-9.87;-8.68;-267.39;-216.31;12.73;366.58;15.71;-8.07;230.04;-22.31;104.05;4.52;7.29;-166.28;-33.39;230.64;4.17;5.93;-3.67
1;-99.31;-36.21;7.48;53.79;37.06;-8.19;-12.09;-214.24;-114.99;12.76;-31.39;21.51;-11;13.54;25.02;64.88;5.6;8.06;-135.96;-29.14;155.71;10.08;3.44;-0.73
1;77;38.99;8.55;203.86;100.05;-8.83;-7.62;-276;-169.31;5.18;363.53;16.11;-8.07;192.34;-15.17;122.53;4.37;6.56;-251.87;-32.12;202.97;6.3;6.78;-3.54
1;-95.57;-21.61;6.26;50.52;27.33;-9.09;-11.43;-219.61;-94.69;5.1;-34.08;30.22;-11.21;7.45;29.44;54.75;4.43;9.34;-178.35;-20.39;135.51;7.05;3.5;-1.2
1;75.65;40.17;7.79;206.84;105.82;-18.49;-8.52;-238.49;-177.58;10.01;388.16;18.45;-7.79;214.12;-10;141.54;4.61;9.18;-284.74;-34.68;281.07;5.22;6.57;-3.93
1;-97.24;-20.22;7.83;51.18;29.99;-8.19;-9.75;-227.55;-90.49;8.71;-33.18;27.33;-11.06;18.44;38.41;50.4;4.62;8.6;-124.74;-29.88;123.11;10.07;3.18;-0.87
1;75.22;38.67;7.82;197.77;95.06;-15.22;-8.63;-232.03;-171.85;14.08;381.72;14.34;-8.15;186.73;-30.12;124.34;4.68;7.98;-264.31;-35.48;232.88;5.7;6.2;-3.7
1;-95.18;-26.36;8.75;49.19;35.03;-8.1;-11.14;-213.4;-111.9;9.25;-29.12;27.77;-10.69;27.15;30.15;59.82;4.81;9.09;-137.07;-24.73;120.24;14.31;3.73;-1.11
1;75.58;37.28;7.53;188.94;104.37;-12.4;-8.01;-213.17;-203.67;6.22;363.39;16.12;-7.69;215.44;-25.81;112.69;3.88;7.51;-216.79;-35.92;202.69;4.85;6.01;-3.57
1;-93.81;-27.8;7.56;52.31;32.74;-6.9;-8.24;-210.59;-102.38;7.54;-20.79;19.07;-10.83;14.24;37.58;49.03;4.37;7.88;-127.46;-31.98;92.69;8.06;3.14;-0.93
1;80.98;43.8;8.08;204.2;107.46;-10.04;-7.56;-247.17;-168.6;10.27;374.69;15.09;-8.28;219.13;-11.83;105.53;4.11;7.56;-208.28;-29.89;212.87;4.12;6.66;-3.95
1;-104.62;-32.34;7.98;49.54;32.14;-14.79;-10.07;-213.3;-95.65;12.77;-37.23;24.09;-11.49;9.1;18.12;79.65;5.12;9.51;-166.97;-30.88;140.75;7.67;3.14;-0.71
1;85.6;40.1;7.18;188.53;112.04;-15.41;-9.41;-242.1;-167.99;14.3;347.85;14.89;-7.67;242.53;-23.84;82.96;4.73;7.03;-211.19;-27.43;142.77;4.38;6.66;-3.74
1;-95.2;-41.75;7.22;53.94;37.57;-10.63;-9.19;-211.64;-113.77;13.88;-31.49;20.67;-11.52;-0.41;34.4;85.4;5.49;8.52;-167.95;-29.96;182.13;5.65;3.45;-0.91
1;82.36;43.73;7.74;195.47;99.51;-12.6;-8.81;-226.66;-142.07;12.68;364.38;14.76;-7.12;200.62;-10.71;98.33;4.54;7.06;-154.5;-26.34;184.4;5.96;6.61;-3.66
1;-99.37;-26.98;9.36;47.45;33.77;-10.22;-10.82;-196.15;-99.53;15.71;-36.18;21.24;-11.39;14.27;20.28;66.92;5.45;8.91;-158.83;-35.8;105.72;10.92;3.54;-0.7
1;82.33;31.66;7.32;194.9;87.97;-13.02;-7.74;-216.12;-150.72;7.71;387.52;16.91;-7.5;167.83;-14.21;102.75;3.16;7.44;-160.47;-32.78;234.64;8.49;7.25;-3.26
1;-97.58;-29.94;7.46;49.26;29.21;-8.82;-6.76;-215.74;-98.06;11.25;-38.76;23.21;-11.12;7.56;22.43;71.38;4.16;8.48;-126.64;-31.64;123.94;7.22;3.72;-0.72
1;84.78;46.87;7.24;202.01;105.92;-14.96;-8.6;-243.57;-198.33;7.45;374.81;18.94;-7.65;212.42;-19.37;129.99;3.88;8.63;-223.43;-33.11;296.52;5.76;6.36;-3.67
1;-100.9;-33.8;7.62;54.67;39.3;-10;-7.27;-227.32;-111.12;11.42;-31.66;19.85;-10.83;17.14;29.25;70.13;4.57;7.68;-97.42;-31.23;131.07;10.82;3.56;-0.6
1;81.59;39.06;7.91;191.39;98.92;-13.81;-7.7;-229.4;-138.72;16.08;355.96;15.75;-7.91;207.44;-17.71;99.77;4.88;8.12;-196.87;-33.12;169.31;5.19;6.57;-3.44
1;-98.69;-32.99;6.94;53.47;31.23;-13.38;-9.77;-228.45;-112.41;12.1;-36.45;34.31;-11.27;20.32;14.84;103.74;4.87;10.51;-290.44;-28;147.51;6.66;3.5;-0.98
1;82.82;46.7;8.16;203.25;105.17;-16.6;-9.61;-249.25;-190.09;13.22;369.54;17.77;-8.06;224.03;-21.31;133.23;5.68;9.31;-225.93;-32.85;223.79;3.06;5.78;-3.59
1;-98.55;-40.5;7.69;51.52;40.92;-11.12;-11.69;-193.31;-109.86;10.56;-30.33;21.88;-10.34;6.39;29.98;71.73;5.12;8.33;-154.49;-20.44;157.08;10.17;4.39;-1.64
1;81.6;41.84;6.84;188.85;107.57;-12.65;-7.87;-202.64;-176.72;9.09;372.12;14.28;-7.69;219.25;-6.88;103.1;3.54;7.64;-119.12;-31.84;261.09;7.21;6.56;-3.68
1;-100.13;-30.02;8.28;52.6;35.21;-8.17;-9.83;-227.88;-108.27;13.26;-31.39;25.57;-11.13;14.36;24.26;76.62;5.14;8.62;-161.01;-31.26;140.09;10.82;3.58;-0.81
1;82.15;48.99;6.35;200;105.54;-14.02;-8.7;-236.84;-145.42;6.64;364.77;17.4;-7.25;221.77;-9.26;105.28;3.76;7.92;-190.9;-19.23;192.34;6.27;7.23;-3.94
1;-105.25;-35.09;5.36;52.73;31.48;-11.88;-6.6;-228.05;-87.74;7.78;-39.39;15.91;-12.19;5.49;26.36;65.51;4.05;7.38;-110.81;-22.69;173.68;-3.07;2.73;-0.26
1;82.51;42.01;7.06;191.89;88.11;-12.64;-8.21;-204.76;-101.65;5.15;381.06;14.92;-6.66;172.56;-12.05;120.85;3.67;7.74;-206.6;-20.38;258.85;5.92;7.24;-4.02
1;-96.09;-23.98;7.83;47.06;26.68;-6.41;-6.78;-205.63;-84.99;9.07;-33.1;23.11;-11.5;4.81;11.17;62.64;4.01;8.14;-165.44;-30.67;80.58;5.65;3.11;-0.39
1;83.29;46.11;6.88;205.23;99.3;-10.38;-8.61;-245.65;-152.97;6.26;378.68;15.66;-7.36;218.68;-3.87;118.39;3.88;7.38;-183.36;-22.04;258.06;4.83;6.82;-3.7
1;-100.78;-29.01;6.82;58.75;35.29;-11.97;-6.15;-231.08;-93.02;11.88;-31.37;20.78;-11.72;12.9;23.42;70.15;4.53;8.48;-144.37;-31.83;116.26;3.6;3.08;-0.42
1;76.52;42.37;7.44;192.23;94.22;-12.99;-7.41;-251.38;-150.56;10.38;364.45;16.69;-7.74;177.45;-20.05;139.09;4.15;7.72;-208.02;-33.76;321.72;6.13;7.24;-3.71
1;-98.07;-20.72;7.23;52.98;29.92;-10.08;-7.79;-220.24;-94.08;8.21;-29.9;25.92;-11.36;10.8;35.19;51.73;4.65;9.19;-148.35;-28.86;96.92;7.1;2.29;-0.6
1;81.08;48.11;7.89;199.5;110.4;-10.84;-8.93;-224.88;-143.47;7.62;369.7;17.08;-7.42;227.7;-20.19;108.33;4.22;7.57;-193.71;-26.54;229.22;4.96;7.22;-4.45
1;-97.17;-36.47;7.74;61.42;32.19;-9.99;-7.42;-231.16;-93.7;9.8;-26.49;24.53;-11.76;1.05;21.57;83.7;4.54;9.53;-198.49;-34.88;124.64;6.52;2.98;-0.44
1;84.86;47.39;7.01;197.34;102.13;-10.71;-8.73;-224.87;-137.14;5.38;372.18;15.86;-6.96;217.97;-8.24;107.5;3.98;6.62;-172.7;-18.13;221.83;3.17;7.32;-4.52
1;-99.59;-34.03;6.85;56.69;30.13;-8.36;-8.99;-224.21;-94.16;8.8;-25.29;21.99;-12.29;3.12;23.37;81.39;5;9.05;-169.79;-29.56;133.63;0.74;2.77;-0.28
1;73.79;49.6;7.77;187.35;112.64;-8.81;-8.19;-209.81;-169.7;8.43;342.41;14.66;-7.78;225.2;-19.74;90.26;4.18;6.58;-149.81;-31.3;176.66;5.94;6.94;-4.35
1;-95.34;-35.09;8.33;53.13;32.4;-8.49;-9.75;-222.76;-110.75;9.13;-27.81;21.68;-11.45;7.56;35.64;59.49;4.92;8.21;-116.28;-33.32;126.22;9.98;3.08;-1.02
1;73.62;43.24;7.97;191.53;103.4;-12.53;-8.84;-206.95;-188.57;12.27;362.51;15.9;-7.86;211.67;-20.5;102.53;4.48;7.2;-173.9;-35.02;177.95;4.7;6.58;-3.86
1;-97.53;-33.25;8.58;54.46;37.6;-8.57;-10.48;-208.09;-120.83;9.36;-21.59;25.8;-10.91;32.23;32.28;57.35;5.23;9.33;-127.73;-22.69;112.11;13.13;2.38;-0.82
1;76.72;52.75;7.6;195.31;104.75;-5.56;-9.11;-214.75;-179.66;6.29;364.77;15.7;-7.17;194.86;-7.38;110.68;4.13;6.71;-153.63;-27.17;249.86;4.91;6.76;-4.49
1;-98.08;-27.46;9.22;55.9;37.25;-11.69;-11.07;-217.31;-115.47;12.4;-23.71;23.68;-11.54;10.59;27.15;66.32;6.06;9.77;-132.13;-33.41;122.02;11.28;2.98;-0.78
1;74.46;40.26;6.45;199.17;96.48;-9.94;-8.83;-218.46;-163.74;5.59;368.67;15.73;-6.92;196.91;-4.6;109.57;3.84;7.46;-181.64;-28.74;229.9;3.1;6.2;-4.01
1;-98.84;-27.06;8.25;56.36;33.83;-9.08;-8.04;-219.87;-97.83;10.66;-24.85;26.73;-11.15;11.65;22.59;77.65;4.92;10.14;-182.21;-32.97;121.48;10.5;3.71;-0.91
1;80.77;39.33;8.15;205.77;102.63;-12.93;-8.63;-243.82;-201.07;12.21;371.05;14.26;-7.83;201.26;-19.89;111.8;4.29;7.33;-189.72;-37.61;200.77;6.65;6.75;-3.34
1;-110.55;-27.45;7.51;52.11;31.4;-10.42;-8;-229.76;-105.26;12.21;-51.46;23.61;-11.53;27.56;18.67;56.82;5.13;8.63;-143.94;-28.97;88.9;11;3.24;-0.5
1;98.83;45.32;8.97;198.01;91.82;-12.36;-8.57;-215.38;-159.59;10.09;374.43;18.44;-8.2;190.68;-1.27;136.3;4.84;8.73;-258.86;-33.69;292.66;0.95;6.65;-3.95
1;-106.69;-20.45;9.53;52.75;37.93;-12.95;-15.71;-239.16;-118.86;9.44;-53.63;29.73;-11.4;73.39;1.94;74.03;5.34;9.31;-241.4;-25.55;164.68;17.35;3.39;-1.02
1;110.05;54.58;6.77;205.85;108.67;-18.69;-11.5;-236.51;-162.82;6.41;388.76;22.41;-7.83;235.09;3.88;139.42;4.16;10.48;-306.63;-26.06;253.26;0.19;6.64;-4.14
1;-111.24;-36.79;8.66;62.72;34.29;-8.38;-6.97;-229.39;-112.29;10.62;-34.95;23.6;-12.72;1.42;-1.86;62.1;4.66;7.16;-147.77;-34.53;112.1;4.94;2.55;0.35
1;111.54;48.44;7.29;194.14;88.18;-11.71;-11.11;-209.92;-154.49;10.96;384.25;19.68;-7.57;168.88;18.1;137.99;4.12;8.29;-262.87;-32.64;222.78;1.98;6.62;-3.58
1;-96.38;-15.03;7.98;53.51;31.19;-8.75;-11.44;-199.4;-87.1;11.61;-30.64;25.43;-10.99;55.59;5.22;71.34;4.5;8.86;-262.39;-32.17;98.61;13.12;2.24;0.41
1;93.55;52.42;7.4;208.73;108.53;-19.64;-9.74;-208.64;-152.78;3.71;399.08;22.59;-9.02;202.25;0.97;141.1;3.07;9.72;-284.51;-24.34;305.08;0.18;6;-3.96
1;-99.18;-32.58;7.85;54.89;36.42;-23.56;-8.47;-212.36;-116.26;12.15;-27.58;30.09;-11.71;24.23;1.82;119.32;4.55;10.92;-289.01;-35.69;187.51;8.01;2.05;0.46
1;88.61;39.95;6.72;204.82;103.04;-11.89;-11.48;-243.47;-159.5;13.51;380.78;20.25;-9.48;182.19;3.24;131;4.54;8.49;-253.13;-27.45;277.92;-0.24;4.91;-2.54
1;-108.84;-28.24;7.24;47.29;25.84;-6.07;-14.83;-200.99;-96.62;11.32;-52.82;22.41;-12.02;18.54;6.46;82.98;5.17;7.35;-236.94;-25.01;110.39;7.59;3.02;-0.74
1;113.48;42.73;6.77;187.67;92.01;-16.01;-9.96;-179.16;-167.15;7.98;385.32;20.16;-8.52;174.67;-10.18;133.19;3.65;9.67;-297.34;-32.86;210.68;-1;5.27;-3.24
1;-98.1;-31.33;6.09;57.64;25.61;-8.25;-7.13;-216.78;-83.53;10.03;-25.68;23.51;-11.53;24.42;9.59;94.09;4.11;9.13;-239.48;-31.09;154.03;3.96;2.33;0.46
1;90.48;46.66;7.01;209.49;103.4;-13.14;-11.45;-230.85;-155.46;4.19;389.85;18.35;-9.03;179.21;3.53;126.12;3.76;8.52;-270.62;-25.27;250.81;-0.08;5.54;-3.75
1;-104.34;-34.06;7.08;64.35;28.11;-11.66;-5.73;-237.73;-93.4;9.03;-40.43;19.63;-12.54;30.39;7.86;85.57;3.79;7.7;-219.8;-30.7;146.86;3.68;1.81;0.32
1;115.76;45.87;6.03;192.38;100.78;-13.51;-12.1;-205.92;-206.97;4.99;383.94;20.45;-7.4;194.83;-8.08;135.49;3.78;8.99;-298.81;-28.84;232.71;4.8;6.83;-4.39
1;-108.8;-31.72;8.69;54.08;36.21;-8.74;-7.11;-224.31;-117.23;12.41;-54.43;19.44;-12.18;71.45;10.12;75.91;4.52;7.88;-190.03;-34.4;132.25;11.5;3;-0.23
1;105.6;66.48;4.96;199.28;110.4;-16.41;-13.94;-211.32;-128.28;4.18;376.16;20.42;-7.18;226.19;-0.36;143.84;3.8;9.35;-306.7;-22.18;258.81;-0.84;6.71;-5.05
1;-105.22;-37.06;7.25;57.96;22.93;-15.28;-5.84;-211.15;-106.14;7.09;6.64;21.79;-12.95;13.36;8.41;78.86;3.22;7.38;-205.48;-34.23;138.92;5.74;1.93;0.32
1;111.75;61.43;5.7;201.68;110.94;-15.6;-13.09;-231.41;-163.01;3.38;399.15;19.98;-7.41;217.85;-7.31;130.75;3.98;8.63;-284.99;-21.99;246.16;0.33;7.28;-4.88
1;-105.17;-31.04;6.34;58.51;20.17;-9.76;-6.07;-229.78;-67.19;9.75;-36.27;19.4;-13;14.34;26.48;56.22;3.96;7.01;-125.39;-28.92;121.31;1.09;1.27;0.2
1;111.96;53.46;4.8;199.69;103.11;-16.56;-12.43;-239.53;-130.97;6.44;385.65;19.13;-7.38;196.75;-15.6;134.34;4.25;9.2;-301.1;-20.67;223.2;-1.83;7.31;-4.68
1;-105.99;-27.54;7.17;50.67;21.12;-16.02;-7.45;-220.94;-95.8;7.96;-33.65;26.88;-13.09;-1.98;10.23;73.13;4;8.41;-223.47;-27.38;119.84;3.72;2.62;-0.65
1;117.86;54.6;4.92;184.62;95.09;-16.64;-12.72;-208.32;-139.3;4.19;371.23;20.1;-6.86;191.35;-1.84;130.81;3.99;9.22;-291.16;-19.74;239.19;3.43;7.38;-4.84
1;-101.01;-28.85;7.09;59.44;25.56;-15.59;-6.46;-222.21;-88.91;9.44;-11.05;16.67;-12.77;28.03;15.21;72.03;4.15;7.92;-170.13;-31.05;111.99;3.48;1.64;0.02
1;108.84;53.7;5.1;198.35;100.39;-16.22;-13.22;-218.39;-149.88;3.81;379.9;21.02;-6.76;206.73;-13.86;135.66;3.98;8.99;-311.98;-20.69;236.27;4.38;7.72;-5.08
1;-101.64;-33.62;7.21;59.96;26.19;-10.47;-6.48;-227.27;-99.11;8.22;-9.3;16.01;-12.58;17.78;18.75;61.85;3.76;7.06;-130.19;-29.08;113.68;4.64;1.97;-0.21
1;100.33;62.41;5.43;198.36;115.9;-15.46;-13.89;-230.4;-152.79;4.34;368.35;19.92;-7.7;224.71;5.47;138.21;3.87;8.8;-308.89;-26.23;218.02;-1.85;7.43;-4.81
1;-101.36;-26.55;6.2;53.21;19.38;-14.07;-7.07;-217.17;-79.74;6.08;-19.77;23.59;-12.79;3.35;5.64;77.35;3.58;8.18;-251.31;-29.14;89.58;2.15;2.21;-0.36
1;104.68;42.64;6.21;206.94;94.73;-16.97;-12.42;-215.46;-98.32;4.59;393.84;20.52;-7.68;206.52;-9.38;121.45;4.02;9.99;-291.38;-24.19;194.72;4.94;7.33;-4.7
1;-99.28;-30.02;7.04;53.62;18.91;-12.59;-5.58;-214.64;-80.91;7.48;-3.74;20.65;-12.53;16.79;9.36;69.35;3.46;6.94;-201.97;-32.45;120.36;4.32;2.84;-0.19
1;108.42;61.44;5.21;199.26;104.17;-15.38;-13.29;-240.25;-123.14;3.94;376.55;20.91;-7.9;228.74;14.56;131;3.8;9.09;-285.64;-24.5;211.69;-0.96;6.61;-4.37
1;-109.59;-33.06;6.16;50.64;22.32;-17.51;-6.18;-224.97;-92.03;8.98;-27.65;24.19;-13.03;5.95;-8.09;88.75;3.98;8.71;-283.12;-26.05;99;2.97;2.43;-0.26
1;109.6;54.27;5.4;203.8;102.09;-17.58;-9.67;-213.44;-93.79;4.5;394.09;19.93;-7.36;221.22;19.51;129.48;3.95;9.68;-255.77;-25.02;253.91;-0.29;7.08;-4.3
1;-104.17;-30.42;7.13;55.95;20.95;-13.91;-5.68;-233.29;-79.5;6.88;-21.22;17.37;-13.18;-4.12;-3.01;79.88;3.3;7.18;-242.99;-30.49;90.74;3.3;2.33;-0.16
1;105.1;57.65;5.66;204.26;107.11;-15.75;-12.11;-236.68;-125.8;4.47;383.44;19.83;-7.55;222.97;17.35;127.99;4.02;9.37;-287.41;-24.83;211.39;2.13;7.33;-4.49
1;-111.27;-29.77;7.52;50.78;18.96;-18;-6.25;-221.77;-81.8;11.11;-21.34;21.32;-12.92;12.39;-3.6;85.81;3.88;8.59;-271.77;-33.97;97.23;4.28;2.16;0.06
1;103.26;43.69;6.04;202.3;97.95;-14.03;-11.65;-200.64;-107.75;8.19;383;19.61;-7.43;219.6;4.52;112.02;3.94;8.48;-238.46;-23.56;190.81;1.79;7.08;-4.02
1;-104.65;-27.43;8.05;54.27;22.29;-14.76;-7.64;-217.44;-87.32;12.41;-32.22;22.06;-12.44;27.1;8.61;81.69;4.06;7.89;-263.63;-30.75;100.15;8.37;2.64;-0.31
1;110.49;60.21;6.26;202.82;113.82;-18.96;-13.95;-223.15;-132.83;4.49;400.41;22.57;-7.54;235.07;5.85;143.61;4.34;10.45;-332.25;-24.6;198.7;3.73;7.21;-5.09
1;-104.4;-35.93;7.71;59.41;23.28;-18.98;-9.83;-220.72;-82.82;11.37;-16.37;24.98;-13.03;27.73;4.52;103.98;4.44;9.51;-323.6;-35.01;131.07;4.52;1.7;0.19
1;103.95;47.14;5.99;191.82;93.67;-15.75;-10.77;-216.18;-114.03;10.2;362.66;19.83;-7.55;191.03;7.96;137.11;4.36;9.55;-296.75;-26.9;217.38;2.12;7.12;-4.42
1;-104.33;-21.74;7.39;51.6;22.06;-15.97;-10.43;-209.43;-72.67;11.93;-52.38;33.79;-12.52;30.38;10.38;90.5;4.47;9.96;-295.95;-35.1;115.78;5.93;2.68;-0.48
1;100.4;52.53;5.69;198.58;98.92;-13.26;-10.72;-275.63;-149.33;12.27;368.51;16.62;-8.23;179.33;2.99;121.36;4.4;7.53;-266.5;-25.91;205.93;-1.38;5.92;-3.16
1;-107.09;-27.52;7.54;53.53;32.13;-15.2;-21.1;-225.62;-133.16;12.12;-50.83;37.45;-11.91;43.06;3.87;96.6;5.84;10.33;-314.58;-24.92;111.31;14.2;2.46;-1
1;108.96;45.16;5.44;204.92;107.73;-14.85;-9.23;-204.66;-118.55;4.89;423.91;17.63;-7.11;220.37;-6.92;121.95;3.42;8.45;-235.83;-20.08;269.56;1.94;7.44;-4.41
1;-102.53;-29.99;6.78;56.42;19.97;-9.87;-7.35;-221.52;-83.61;5.92;-41.38;20.13;-12.97;3.55;10.59;76.14;3.7;8.03;-212.25;-32.77;105.22;5.02;2.4;-0.21
1;107.48;36.86;7.03;206.25;91.94;-20.47;-8.93;-256.49;-112.39;10.17;395.96;21.32;-7.76;197.98;-0.02;121.84;4.49;10.69;-261.43;-27.34;188.57;5.32;7.35;-4.09
1;-103.83;-21.81;7.02;42.69;26.35;-17.39;-10.68;-193.71;-77.72;7.83;-59.77;27.55;-12.17;17.5;2.93;78.53;4.01;9.45;-270.93;-32.53;67.87;7.6;4.21;-1.38
1;97.42;49.86;5.82;208.97;106.35;-15.16;-10.17;-255.37;-145.19;5.67;396.56;18.05;-7.75;227.37;3.32;131.7;4.05;8.64;-246.25;-20.25;275.51;0.11;6.64;-3.76
1;-108.45;-31.02;5.99;51.91;23.75;-10.2;-6.98;-229.26;-100.07;5.91;-28.89;20.65;-12.47;9.38;10.47;64.35;3.5;7.64;-159.48;-25.01;106.92;3.68;3.05;-0.64
1;104.43;42.51;6.59;209.11;93.61;-15.89;-8.85;-236.39;-123.99;5.15;399.17;19.06;-6.69;209.21;3.31;128.64;3.53;9.24;-243.19;-20.7;235.2;7.66;7.47;-4.42
1;-105.72;-26.1;7.76;55.33;34.8;-10.93;-8.59;-237.03;-104.05;7.12;-39.07;22.28;-12.28;12.47;6.73;88.26;4.51;9.32;-232.1;-32.38;134.37;5.52;3.63;-0.55
1;78.98;39.55;6.17;205;88.13;-13.67;-7.78;-238.34;-93.38;6.09;384.21;14.31;-6.9;178.59;4.39;115.67;3.01;6.99;-169.38;-17.48;280.74;6.57;7.33;-3.75
1;-109.86;-22.56;7.93;45.31;34.39;-12.76;-7.94;-205.89;-98.57;7.06;-45.23;20.76;-12.67;27.91;0.19;62.87;4.11;8.83;-176.44;-30.75;108.02;4.93;3.69;-0.37
1;94.95;38.07;7.29;203.86;83.57;-14;-8.15;-198.03;-125.52;4.95;402.98;15.34;-6.77;175.14;-1.84;120.95;2.64;6.85;-245.49;-19.07;251.1;10.02;7.76;-4.4
1;-101.08;-26.13;8.75;42.79;40.24;-7.12;-6.95;-221.39;-126.57;9.01;-55.45;17.46;-12.04;25.23;13.83;67.87;3.91;7.04;-203.15;-35.64;81.32;8.15;4.42;-1.17
1;86.28;36.9;7.81;206.72;87.01;-12.7;-7;-265.47;-126.46;6.28;403.6;15.2;-7.16;171.53;1.87;111.07;3.6;7.45;-216.42;-19.95;224.92;12.41;7.78;-3.83
1;-99.85;-21.15;8.04;49.09;33.77;-8.53;-7.43;-220.17;-109.17;5.62;-27.32;16.45;-12.32;30.31;10.06;65.95;4;8.13;-197.25;-25.34;110.73;2.78;3.75;-0.79
1;85.08;31.95;6.79;214.78;88.98;-13.62;-7.87;-253.53;-131.41;5.85;412.68;15.33;-6.95;179.31;-6.22;119.94;3.39;7.15;-209.64;-18.35;242.13;9.76;7.35;-3.77
1;-104.73;-23.78;8.18;47.89;36.64;-12.48;-8.04;-219.07;-110.58;7.2;-51.18;15.9;-12.02;27.18;10.86;67.79;4.2;8.02;-174.86;-30.97;132.7;7.7;4.12;-0.78
1;90.51;39.46;7.55;212.13;100.72;-16.45;-7.59;-237.61;-169.34;6.54;405.67;15.06;-7.31;202.51;-5.73;125.64;3.77;8.46;-205.98;-27.2;258.01;7.1;6.94;-4.1
1;-103.04;-26.78;8.8;47.23;35.06;-12.5;-7.31;-219.95;-128.49;10.04;-50.06;20.65;-11.11;8.5;24.11;70.43;4.1;8.49;-162.22;-30.7;138.23;10.83;4.74;-1.47
1;98.25;23.7;8.06;212.76;74.61;-19.81;-12.24;-250.34;-171.26;6.21;419.34;16.43;-6.97;139.7;-19.4;146.46;3.88;8.9;-314.81;-18.61;215.04;15.57;7.03;-3.84
1;-105.98;-22.88;9.46;50.16;40.27;-16.65;-7.27;-227.48;-126.28;9.42;-44.1;18.37;-11.24;45.23;3.53;84.23;4.59;8.54;-247.66;-30.79;122.56;11.2;4.26;-0.31
1;93.78;29.21;8.28;212.53;100.81;-17.59;-9.91;-222.27;-149.94;8.06;414.54;14.92;-7.15;205;-14.2;116.44;4.04;7.55;-235.81;-22.13;215.86;13.86;8.05;-3.95
1;-105.04;-23.28;10.25;53.09;38.85;-11.61;-8.89;-249.32;-136.76;13.6;-43.93;22.26;-11.81;17.63;23.27;60.37;5.31;8.32;-153.35;-35.33;103.18;13.61;3.9;-0.63
1;88.56;45.78;7.28;221.37;108.05;-16.16;-8.66;-285.54;-133.77;6.87;399.85;15.53;-7.09;222.23;-3.69;126.88;4.23;8.85;-221.09;-20.27;271.52;5.53;6.7;-4
1;-103.21;-28.35;7.05;51.27;36.01;-9.84;-9.68;-236.2;-104.73;9.51;-56.17;29.16;-11.36;24.38;5.1;82.18;4.28;9.39;-241.78;-28.19;111.98;6.5;4.83;-1.34
1;84.49;38.01;7.83;215.08;99.6;-15.44;-7.58;-248.3;-119.28;6.45;401.91;15.83;-7.36;218.66;-5.22;129.1;3.43;7.83;-237.39;-21.61;264.52;9.09;7.86;-4.09
1;-100.47;-26.95;6.16;48.54;28.77;-16.03;-8;-205.27;-103.99;6.91;-33.23;17.7;-12.2;15.6;22.21;79.47;4.36;7.58;-167;-24.65;184.18;2.16;4.02;-0.78
1;86.13;32.81;8.01;205.87;86.74;-18.93;-6.85;-235.69;-148.77;6.29;404.72;15.98;-7.39;170.53;-9.31;121.87;3.12;8.01;-232.1;-30.1;235.24;11.33;7.28;-4.04
1;-106.38;-23.24;8.43;47.01;32.27;-13.53;-7.31;-213.24;-115.63;9.56;-45.09;16.05;-12.17;14.52;20.51;63.85;4.36;7.68;-113.16;-35.79;158.72;5.41;4.2;-0.69
1;95.3;40.87;6.29;210.71;90.32;-17.72;-7.55;-250.14;-87.82;7.89;396.61;16.34;-7.18;188.2;4.9;145.23;3.87;8.16;-240.1;-17.4;310.22;6.64;7.32;-3.69
1;-111.03;-18.25;7.14;52.25;36.7;-12.93;-6.77;-242.09;-112.86;5.99;-33.01;25.77;-12.53;24.03;4.31;77.19;3.6;8.76;-239.71;-29.97;86.69;3.48;3.18;-0.9
1;89.18;35.91;7.63;225.05;88.32;-15.28;-8.16;-262.39;-108.45;6.65;421.14;17.52;-7.03;195.43;-11.27;144.47;3.72;7.65;-260.22;-19.67;237.21;10.05;8.07;-4.05
1;-101.99;-25.16;7.38;53.62;35.07;-15.42;-7.65;-216.46;-120.38;6.65;-40.43;19.84;-12.17;20.82;26.05;81.02;4.1;8.37;-171.01;-27.35;167.98;3.98;3.79;-0.75
1;93.84;42.53;6.65;209.15;101.18;-14.2;-7.49;-237.86;-125.46;4.01;395.16;14.98;-7.16;205.8;-12.39;93.67;2.63;6.27;-138.42;-19.26;176.87;6.74;7.98;-4.48
1;-98.38;-26.85;7.98;54.98;36.03;-13.49;-10.69;-220.09;-110.85;6.44;-20.6;28.13;-12.25;13.28;14.12;84.7;4.45;10.18;-251.29;-28.49;79.99;8.07;3.67;-1.16
1;84.03;43.09;6.4;217.44;106.59;-16.46;-8.72;-207.6;-90.84;7.48;390.07;15.7;-7.03;226.88;2.05;114.52;3.53;8.08;-163.19;-21.54;244.82;5.28;7.29;-3.97
1;-108.32;-29.29;8.01;52.26;34.11;-12.95;-9.07;-229.17;-114.16;7.69;-39.64;22.54;-12.36;6.27;9.86;80.53;4.22;9.39;-223.6;-30.38;128.21;7.09;3.28;-0.83
1;101.35;39.27;6.46;228.28;94.58;-14.18;-8.85;-266.62;-110.58;6.08;432.96;17.1;-7.11;202.62;-3.37;147.9;3.94;8.23;-242.95;-20;338.94;5.38;6.97;-3.03
1;-117.76;-24.33;5.81;51.87;36.9;-12.8;-7.67;-217.88;-98.08;6.71;-54.48;21.87;-12.57;24.84;9.57;73.89;3.93;8.46;-224.83;-21.14;130.86;0.06;4;-1.07
1;97.6;39.2;5.6;204.89;84.65;-15.69;-7.87;-232.84;-99.45;4.98;382.04;16.66;-6.53;185.37;3.3;120.13;3.13;7.28;-199.05;-17.62;218.17;4.64;7.77;-4.06
1;-122.27;-24.25;9.45;45.92;32.14;-15.07;-7.33;-214.55;-93.2;10.03;-57.5;21.36;-13.05;16.7;-8.87;75.94;5.39;9.69;-193.14;-34.26;102.42;10.63;2.44;0.45
1;89.46;43.15;6.18;197;105.18;-10.68;-9.82;-207.69;-118.35;4.84;377.4;17.85;-6.52;217.91;12.85;116.68;3.28;6.58;-159.07;-19.76;257.33;4.23;8.31;-4.55
1;-107.88;-23.7;9.05;48.8;35.1;-11.6;-7.76;-219.91;-108.65;10.95;-45.92;22.09;-12.09;12.4;4.88;69.85;5.28;9.6;-169.9;-29.36;108.25;10.6;3.26;-0.17
1;86.1;45.49;6.22;205.16;101.11;-14.91;-8.83;-228.99;-108.98;7.37;373.84;15.74;-6.83;214.06;-6.28;107.45;3.84;7.68;-205.42;-18.51;195.58;3.66;6.72;-4.23
1;-105.82;-41.02;7.95;54.52;35.12;-13.98;-9.35;-222.93;-114.53;8.75;-30.63;26.78;-12.64;2.67;12.11;88.31;4.97;10.52;-242.75;-29.05;137.09;7.31;3.54;-0.36
1;88.52;45.15;6.42;211.27;108.19;-14.3;-10.2;-212.86;-147.75;7.13;395.88;18.87;-6.57;230.87;-0.64;131.09;3.72;7.62;-251.87;-17.51;252.6;3.72;7.29;-4.41
1;-111.27;-32.77;8.96;54.41;35.37;-9.47;-6.78;-245.52;-119.95;9.93;-42.69;18.05;-12.82;10.64;10.73;80.14;4.94;8.46;-222.14;-33.88;192.56;9.55;3.44;0.03
1;97.31;49.77;6.09;210.4;106.79;-11.3;-8.44;-241.01;-118.2;6.21;387.4;15.72;-6.39;218.49;5.09;113.2;3.59;7.4;-170.17;-20.5;203.66;3.8;7.48;-4.83
1;-111.13;-32.34;7.72;52.33;33.96;-15.5;-7.35;-228.8;-90.51;11.24;-53.34;29.08;-12.73;16.62;-8.31;93.44;5.13;10.32;-266.39;-33.05;105.25;7.96;2.61;-0.14
1;103.51;46.83;7.15;224.78;108.9;-7.08;-11.63;-217.75;-127.3;2.93;427.55;20.04;-6.43;241.91;4.42;147.71;3.39;6.27;-250.93;-22.34;280.96;7;8.05;-4.83
1;-112.03;-29.2;7.32;50.22;41.07;-12.75;-12.3;-228.87;-129.29;9.08;-42.28;22.17;-13.08;12.75;9.51;80.14;5.31;9.5;-199.49;-28.8;118.12;4.67;3.04;-0.45
1;103.11;37.76;6.27;206.53;104.52;-11.63;-6.95;-223.1;-148.12;4.05;387.57;17.04;-6.43;200.35;15.18;108.12;2.66;7;-193.97;-19.41;185.81;6.95;8.22;-4.11
1;-109.36;-25.37;9.44;47.98;34.62;-10;-11.45;-215.89;-133.23;11.45;-44.53;21.58;-11.88;14.82;16.24;75.85;5.25;8.73;-174.44;-31.72;160.45;12.35;3.74;-0.8
1;87.81;37.98;7.31;221.53;89.98;-13.41;-7.51;-251.76;-134.3;5.3;434.97;18.23;-6.81;170.6;-16.31;129.25;3.08;8.23;-240.62;-18.71;228.9;11.86;7.32;-3.85
1;-106.24;-24.6;8.2;54.09;38.16;-13.6;-9.01;-221.71;-115.2;8.08;-39.28;20.13;-12.27;28.09;4.52;68.75;4.46;9.04;-184.35;-31.87;88.57;6.51;3.11;-0.75
1;99.73;39.68;6.84;218.71;116.81;-12.97;-9.93;-244.28;-198.32;5.91;395.23;17.06;-7.15;233.03;-19.49;109.09;3.7;6.65;-207.87;-22.08;147.73;6.58;7.11;-4.43
1;-106.4;-37.42;7.54;61.93;42.33;-9.3;-8.87;-246.2;-120.22;7.7;-38.01;21.37;-12.15;9.91;23.12;69.14;4.55;8.62;-118.15;-33.32;183.47;5.39;3.89;-0.77
1;89.16;48.94;6.69;215.32;99.66;-10.76;-10;-233.23;-83.19;6.85;399.11;16.76;-6.96;196.44;21.14;136.12;4.32;7.33;-217;-20.94;256.93;1.5;7.16;-4.32
1;-115.2;-23.95;7.42;54.82;32.37;-18.6;-9.36;-229.04;-94.6;8.67;-40.81;34.95;-13.34;17.94;1.08;95.95;5.12;11.64;-285.58;-29.23;137.89;3.48;2.49;-0.2
1;93.49;55.1;5.92;219.48;105.19;-17.58;-9.81;-213.54;-84.5;5.75;414.7;17.62;-5.81;215.1;10.51;134.17;4.22;8.24;-199.47;-16.71;271.86;3.87;8.16;-4.62
1;-114.37;-30.1;9.71;61.28;36.01;-14.26;-9.2;-248.56;-114.71;8.49;-25.15;16.99;-13.15;25.84;10.62;69.32;5.1;9.28;-213.89;-33.96;130.9;9.38;2.64;-0.03
1;91.29;42.37;5.83;216.2;91.72;-12.38;-8.05;-242.28;-87.47;4.45;411.71;17.01;-6.07;197.24;-11.48;116.57;3.83;7.45;-224.54;-18.21;210.14;4.51;7.78;-4.08
1;-105.23;-29.49;9.1;50.02;32.34;-12.12;-8.9;-201.37;-109.99;8.36;-30.73;26.6;-12.95;9.66;0.39;86.45;4.79;10.59;-248.89;-30.28;143.56;5.13;3.44;-0.14
1;90.36;40.02;7.07;218.23;118.91;-15.25;-10.28;-235.67;-154.74;5.04;386.99;19.4;-7.08;246.53;5.84;117.09;3.78;8.17;-155.37;-22.88;253.24;5.23;7.26;-4.15
1;-105.22;-36.69;8.05;55.5;34.02;-10.27;-8.96;-238.08;-127.55;7.43;-36.25;22.25;-12.36;-2.53;12.22;76.38;4.37;9.26;-175.88;-34.65;96;9.82;2.91;-0.92
1;99.27;36.55;6.61;216.31;78.66;-8.98;-7.7;-243.43;-117.8;4.53;396.8;15.79;-6.51;158.02;6.9;143.46;2.97;7.24;-378.33;-17.89;247.96;9.19;6.69;-3.67
1;-114.54;-20.19;7.23;50.63;32.29;-16.66;-7.44;-227.85;-101.62;9.36;-58.65;24.58;-12;10.22;-5.67;92.39;4.01;9.37;-342.24;-29.86;112.95;6.37;4.28;-0.44
1;97.66;30.31;6.05;227.67;97.37;-16.18;-6.96;-237.51;-76.25;6.5;415.14;15.77;-6.86;197.43;22.54;144.35;3.29;7.54;-217.08;-20.43;324.55;2.87;7.15;-3.3
1;-111.76;-12.85;6.95;53.1;29.01;-18.19;-7.65;-218.53;-78.27;8.69;-41.87;21.56;-12.69;15.73;-3.32;74.89;3.86;9.15;-242.88;-30.39;117.42;3.06;3.91;-0.65
1;86.78;49.32;6.61;216.78;104.98;-17.43;-9.05;-230.19;-138.13;5.83;402.1;15.95;-6.83;224.38;-2.17;137.91;3.49;7.36;-191.76;-21.1;309.28;4.21;7.15;-4.51
1;-103.55;-26.14;8.74;53.17;35.75;-16.73;-7.81;-212.19;-125.98;6.91;-38.05;16.3;-12.06;13.46;13.58;75.26;4.16;8.49;-157.15;-33.97;175.76;7.32;3.87;-0.78
1;98.63;35.37;8.49;228.99;103.03;-18.58;-8.28;-222.58;-178.3;5.6;441.7;16.3;-6.95;211.9;-18.23;142.75;3.07;8.55;-295.66;-24.9;235.83;11.08;7.26;-4.4
1;-110.4;-37.42;8.48;55.12;36.15;-8.5;-7.43;-239.65;-133.12;9.86;-52.26;21.01;-12.1;15.87;26.2;89.66;4.8;8.56;-209.65;-34.72;176.79;8.97;4.04;-0.58
1;92.22;49.78;6.1;208.31;95.62;-11.84;-7.7;-242.61;-111.24;8.22;393.86;13.94;-6.7;187.75;8.87;118.87;3.9;7.24;-177.03;-18.31;243.4;3.25;7.77;-3.89
1;-112.3;-21.35;4.82;42.69;32.91;-14.74;-9.65;-213.32;-78.47;10.2;-60.29;19.69;-12.97;22.6;-14.8;74.14;4.98;9.34;-216.65;-21.51;100.57;-6.57;2.44;0.23
1;99.48;49.22;7.12;227.8;120.13;-14.14;-11.4;-245.23;-116.58;7.55;437.48;22.27;-6.51;253.16;16.8;146.08;4.73;8.13;-202.21;-19.24;299.6;2.91;8.18;-4.24
1;-115.49;-36.3;5.33;47.96;34.71;-11.26;-6.3;-229.46;-109.47;9.21;-58.06;17.45;-13.28;15.01;4.03;84.54;4.4;7.9;-228.27;-19.64;190.21;-0.83;3.27;-0.47
1;88.9;52.53;6.67;214.55;116.57;-13.98;-10.35;-240.64;-132.02;8.24;395.15;22.11;-6.62;255.87;14.35;127.54;4.91;9;-144.5;-18.81;249.97;5.43;7.41;-4.03
1;-115.72;-30.41;5.71;49.47;28.15;-17.07;-5.67;-236;-75.48;7.41;-57.62;16.06;-13.32;12.33;-1.09;66.25;4.02;9.17;-159.88;-23.41;150.68;-3.84;2.1;0.24
1;88.2;55.79;5.6;213.22;116.01;-16.26;-10.91;-223.92;-100.22;4.98;383.94;17.73;-6.98;246.58;-3.61;111.32;3.37;7.87;-200.37;-17.06;197.57;2.29;7.55;-4.48
1;-105.31;-40.49;7.84;52.9;33;-11.76;-7.18;-232.21;-106.79;9.64;-36.65;19;-13.2;2.43;10.53;74.48;5.07;8.72;-226.13;-23.25;152.36;4.99;2.6;0.32
1;74.36;40.02;6.02;197.86;87.27;-10.31;-8.68;-218.34;-98.59;5.85;361.6;17.59;-6.5;184.05;0.51;137.75;3.55;6.96;-291.35;-14.55;262.18;4.26;6.66;-3.92
1;-105.71;-27.26;7.23;44.1;34.32;-16.55;-7.45;-198.45;-97.56;9.1;-41.74;17.68;-13.06;23.46;7.49;73.22;4.55;8.66;-193.51;-24.97;173.92;1.94;3.74;-0.45
1;83.92;39.82;6.32;201.64;100.26;-17.39;-8.37;-196.42;-124.81;7.21;390.76;15.53;-6.53;197.94;6.39;120.16;3.3;7.28;-183.02;-18.89;279.64;9.65;7.33;-4.09
1;-106.62;-25.73;9.22;48.06;39.01;-11.34;-9.69;-218.26;-126.13;7.74;-48.08;16.14;-12.63;20.55;14.12;56.57;4.46;7.25;-166.13;-35.16;127.65;10.44;3.63;-0.75
1;96.14;42.6;6.71;223.07;98.98;-12.93;-7.03;-242.29;-108.94;7.43;416.05;14.9;-6.57;199.04;10.51;129.72;3.34;7.32;-229.57;-17.64;261.14;8.52;6.97;-4
1;-111.08;-26.71;8.05;52.55;33.77;-11.56;-9.51;-233.44;-112.85;4.4;-49.93;25.02;-12.54;11.45;7.03;79.26;3.63;9.13;-251.27;-33.95;81.6;12.06;3.96;-1.43
1;93.18;55.77;7.17;217.56;104.39;-14.13;-10.42;-233.09;-131.99;4.78;396.77;18.81;-6.77;224.21;-0.15;143.19;3.74;8.82;-273.11;-22.28;243.41;6.11;7.2;-4.92
1;-114.7;-30.21;8.29;53.97;35.17;-11.82;-8.3;-237.98;-117.62;6.87;-46.03;18.74;-12.76;18.27;11.53;73.22;4.35;8.42;-233.16;-31.91;152.4;6.35;3.44;-0.77
1;105.46;52.76;7.72;219.73;95.96;-13.29;-8.57;-254.33;-111.82;5.56;402.16;17.08;-6.26;204.31;14.62;131.28;3.02;8.3;-231.65;-22.49;228.26;9.8;7.78;-5.19
1;-107.56;-26.13;7.71;53.6;30.1;-14.15;-6.63;-228.63;-96.46;6.88;-28.09;21.54;-12.38;13.22;-3.52;87.8;3.88;8.77;-265.26;-34.43;122.89;6.69;3.24;-0.42
1;93.27;36.91;6.75;225.52;92.67;-15.8;-7.57;-280.04;-119.69;6.97;409.95;14.89;-7.09;193.12;3.26;136;4.06;8.07;-253.94;-20.95;256.25;5.37;6.85;-3.52
1;-112.65;-12.67;8.26;55.52;40.01;-14.47;-7.83;-235.67;-94.01;8.72;-56.27;35.74;-12.45;50.96;-4.59;88.78;4.78;11.01;-256.03;-31.73;133.94;5.96;3.37;-0.5
1;95.5;44.73;6.61;218.26;114.3;-9.17;-10.1;-219.54;-111.65;5.8;403.69;16.82;-6.7;239.39;9.1;112.3;4.01;6.43;-143.46;-19.27;239.91;6.45;8.19;-4.63
1;-102.91;-33.55;7.81;53.99;33.6;-12.74;-8.96;-230.21;-109.04;6.8;-31.32;14.77;-12.73;7.8;16.11;75.98;4.39;7.34;-155.71;-33.99;154.91;8.1;2.83;-0.45
1;94.03;53.38;6.85;207.9;108.71;-13.92;-10.13;-230.3;-149.23;5.63;374.72;20.49;-6.78;240.29;0.83;145.87;3.96;8.54;-221.26;-17.71;247.81;5.9;6.96;-4.68
1;-113.08;-28.65;7.94;57.54;39.15;-11.65;-8.15;-247.54;-143.44;7.29;-40.75;19.96;-12.63;18.18;5.41;63.41;4.57;9.03;-195.56;-32.94;114.12;7.39;3.37;-0.55
1;97.12;49.36;7.34;231.05;105.87;-9.42;-8.8;-305.63;-154.79;8.93;417.58;15.52;-7.08;211.55;17.58;136.54;4.33;7.78;-171.07;-21.56;294.55;2.67;6.96;-4.13
1;-116.9;-23.01;7.11;47.5;31.37;-8.47;-13.61;-212.43;-95.45;14.33;-58.17;33.48;-11.86;18.11;-4.05;83.19;5.32;9.94;-232.71;-29.08;80.26;9.04;4.28;-1.22
1;97.07;52.15;7.53;203.87;92.33;-8.95;-9.14;-255.07;-180.12;4.75;393.05;15.88;-6.31;170.03;0.22;124.18;3.4;6.7;-232.66;-24.58;224.54;8.17;7.19;-4.44
1;-109.88;-29.89;8.28;52.98;38.03;-9.4;-8.29;-220.35;-104.81;9.04;-53.31;18.06;-11.64;22.22;4.96;59.67;4.53;7.59;-168.2;-35.23;105.35;11.53;3.76;-0.52
1;102.43;39.64;6.81;223.92;85.95;-9.26;-7.95;-252.03;-91.04;4.34;412.67;16.47;-6.46;178.83;18.43;138.49;2.98;6.42;-239.49;-20.35;255.3;6.49;7.93;-3.89
1;-110.35;-16.94;7.5;48.77;33.1;-12.7;-9.59;-222.55;-87.13;7.72;-45.76;23.5;-12.94;26.14;-8.87;69.39;4.28;8.71;-232.71;-28.52;87.71;3;3.66;-0.48
1;98.62;35.78;6.49;220.34;104.18;-14.42;-7.11;-260.82;-140.91;7.86;411.64;13.72;-7.06;200.54;5.84;117.2;3.69;7.32;-166.07;-16.98;278.29;7.44;7.44;-3.41
1;-110.14;-37.45;4.42;53.59;32.82;-12.35;-7.23;-228.09;-89.91;6.46;-53.27;17.95;-12.53;6.48;16.03;81.73;4.05;7.71;-168.28;-20.8;197.01;-2.75;3.53;-0.92
1;94.33;47.45;8.06;212.48;104.52;-17.44;-8.96;-225.87;-159.77;6.92;406.57;19.38;-7.34;215.86;-6.23;139.32;4.01;9.55;-264.61;-24.57;242.88;5.68;6.69;-4.67
1;-113.01;-22.32;8.43;52.8;34.97;-11.75;-7.03;-232.1;-106.51;8.24;-56.94;23.8;-12.17;19.37;11.1;63.2;4.28;8.64;-190.95;-35;109.93;10.18;3.37;-0.42
1;97.32;48.79;7;228.93;107.6;-15.67;-9.46;-265.84;-181.59;6.74;426.36;14.26;-6.57;211.1;-6.65;134.37;3.79;8.35;-224.63;-18.82;267.72;6.82;7.01;-4.57
1;-102.67;-22.85;7.28;56.56;46.61;-9.17;-9.11;-239.38;-143.54;6.05;-45.15;25.46;-11.91;39.77;14.09;70.85;4.44;8.79;-214.32;-29.04;82.93;6.47;3.81;-1.14
1;94.67;45.56;8.66;214.46;103.87;-13.05;-9.39;-282.12;-230;11.21;399.8;15.72;-7.38;195.16;-1.7;110.43;4.26;7.51;-191.23;-36.56;221.86;9.52;7.13;-4.36
1;-105.48;-24.28;10.25;51;46.97;-16.82;-15.37;-220.07;-124.59;14.33;-48.18;28.25;-11.46;67.24;20.5;67.05;6.13;9.35;-170.68;-34.27;125.39;20.49;3.52;-1.04
1;103.68;39.85;6.13;226.09;86.25;-19.93;-8.29;-267.35;-119;6.67;418.45;18.98;-7.15;189.64;1.08;159.88;3.84;9.16;-265.02;-19.85;297.5;6.28;7.18;-3.95
1;-111.29;-19.04;5.44;48.81;30.59;-12.77;-8.42;-214.66;-81.39;5.94;-51.99;19.97;-12.33;31.73;-0.12;64.56;3.92;8.66;-224.09;-25.31;98.34;-0.21;3.3;-0.66
1;101.92;41.8;6.38;216.18;97.32;-13.87;-8.39;-286.7;-122.28;13.62;403.36;16.55;-7.48;208.96;1.97;126.79;4.62;8.33;-206.15;-25.73;265.72;4.62;7.65;-3.83
1;-111.42;-25.86;7.92;47.98;39.02;-14.08;-10.57;-212.53;-93.45;11.63;-62.74;33.2;-12.02;30.65;-2.21;81.15;5.73;10.37;-237.58;-34.89;106.81;7.34;3.24;-0.63
1;96.92;40.61;7.67;214.34;97.92;-10.77;-9.12;-237.8;-93.98;6.99;401.99;17.23;-6.78;204.15;12.08;140.84;4.04;7.57;-322.22;-19.6;281.12;6.3;6.98;-4.15
1;-113.93;-30.7;7.89;53.11;29.48;-14.17;-7.48;-227.69;-104.34;7.29;-54.2;21.23;-12.72;3.44;6.04;88.18;3.98;8.97;-302.57;-34.14;124.22;5.01;3.56;-0.62
1;97.69;49.71;6.83;223.37;100.92;-13.21;-7.99;-279.06;-115.08;5.18;409.71;14.58;-6.41;213.84;5.03;136.43;3.07;7.05;-193.13;-19.07;282.93;6.18;7.85;-4.21
1;-107.1;-24.56;7.34;57.34;33.11;-12.22;-8.19;-217.87;-85.76;7.62;-40.03;23.72;-13.07;14.32;-0.24;66.95;4.31;9.29;-202.07;-29.7;84.94;2.89;3.01;-0.25
1;94.11;46.53;6.94;220.77;119.4;-13.59;-9.89;-264.03;-162.5;7.94;404.56;17.35;-7.25;232.76;2.33;119.78;4.15;7.5;-188.78;-25.09;252.77;5.72;7.37;-4.26
1;-106.97;-33.93;7.11;59.38;38.11;-10.5;-7.52;-249.07;-104.66;8.86;-35.42;24.15;-12.08;17.83;8.24;85.81;4.54;8.63;-209.37;-32.48;164.22;3.39;3.34;-0.74
1;99.96;44.23;6.85;219.24;98.23;-16.64;-8.15;-267.46;-131.83;8.63;379.03;16.23;-7.14;201.28;14.17;118.31;3.97;8.61;-184.27;-23.58;222.04;6.31;7.1;-3.75
1;-121.79;-25.32;8.45;54.75;28.68;-13.16;-9.15;-248.72;-89.09;12.1;-58.03;26.88;-12.61;10.88;11.78;69.03;5.07;9.93;-200.78;-32.76;146.9;9.61;3.43;-0.69
1;101.48;58.78;6.55;226.01;96.8;-14.77;-8.55;-219.53;-73.76;6.35;413.39;15.53;-6.47;205.29;-1.47;154.66;3.59;8.77;-343.69;-18.61;287.41;3.6;6.96;-4.57
1;-106.98;-27.43;8.73;50.54;44.41;-12.97;-7.85;-210.65;-128.83;5.42;-47.27;24.21;-11.98;15.23;-4.18;95.35;4.22;8.99;-376.1;-31.93;75.23;9.27;3.36;-0.63
1;91.64;37.16;6.86;220.15;100.75;-12.08;-7.48;-280.77;-96.4;3.3;397.6;13.56;-7.2;196.25;13.29;133.47;3.31;7.53;-293.79;-22.39;289.54;3.84;6.54;-3.64
1;-106.92;-28.73;6.31;52.06;30.2;-8.83;-9.55;-225.92;-96.67;6.85;-53.23;31.57;-11.99;15.21;-14.84;106.03;4.18;9.47;-338.17;-28;160.69;2.47;5.05;-1.27
1;98.63;33.33;7.55;223.91;97.71;-13.86;-7.7;-242.42;-91.46;7.49;411.24;15.77;-6.68;202.09;12.36;122.03;3.65;7.66;-255.57;-21.15;202.43;7.94;7.55;-3.43
1;-109.15;-26.02;6.52;60.75;27.62;-18.08;-7.96;-241.91;-96.18;7.49;-29.75;21.17;-13.21;8.78;8.85;84.78;4.28;9.6;-254.21;-27.66;162.31;0.15;2.77;-0.27
1;105.78;49.15;7.06;226.82;87.63;-18.43;-9.63;-243.13;-108.59;5.44;434.79;19.04;-6.14;198.32;10.19;168.84;3.93;9.4;-290.29;-20.62;312.37;3.99;6.91;-4.21
1;-113.72;-21.58;6.6;59.2;34.74;-12.98;-7.72;-237.75;-102.21;7.31;-44.62;33.81;-12.43;17.9;4.42;96.4;4.26;10.19;-310.64;-29.95;132.75;1.75;3.55;-0.55
1;91.9;32.37;6.34;219.89;90.15;-16.01;-8.55;-254.62;-122.04;6.41;402.22;15.95;-6.28;171.45;-4.06;133.07;3.49;7.67;-244.82;-19.02;238.15;6.63;7.04;-3.81
1;-110.03;-26.32;7.65;53.52;29.23;-15.94;-8.51;-228.14;-84.57;9.61;-42.31;24.93;-12.78;9.28;0.57;79.3;4.83;10.23;-235.4;-28.58;134.38;4.7;3.44;-0.21
1;95.65;46.88;6.27;218.99;109.9;-14.7;-9.73;-227.33;-82.12;6.59;426.49;15.87;-6.54;219.37;21.17;137.35;3.94;7.63;-218.89;-17.16;297.7;3.18;7.46;-4.07
1;-119.71;-20.9;7.75;55.89;31.78;-13.34;-7.81;-251;-80.27;8.45;-51.51;18.61;-12.94;23.7;-23.23;68.85;4.53;8.3;-229.58;-33.55;114.05;2.59;2.73;0.12
1;97.28;49.06;6.39;226.63;103.05;-10.26;-9.68;-272.96;-120.13;6.14;416.44;19.24;-6.66;226.69;19.73;148.24;3.89;7.88;-197.64;-18.34;330.37;4.35;7.2;-4
1;-115.49;-28.72;6.02;51.99;36.54;-10.33;-8.66;-221.29;-96.65;6.76;-44.88;18.9;-12.94;21.04;1.27;77.89;4.3;8.44;-205.89;-20.8;156.65;0.94;4.28;-1.4
1;88.46;42.66;6.53;210.2;94.7;-15.89;-9.5;-236.98;-152.2;7.18;395.48;14.05;-6.23;169.55;5.77;118.32;3.82;7.69;-191.93;-16.31;238.49;10.17;7.19;-4.35
1;-103.07;-23.83;8.66;51.7;36.7;-14.73;-10.06;-224.98;-103.97;10.81;-41.32;27.39;-12.11;20.96;16.03;69.32;5.13;9.72;-186.54;-29.81;144.36;8.91;3.25;-0.73
1;88.35;47.92;6.86;218.82;104.27;-16.73;-8.11;-236.73;-131.95;6.92;404.78;16.38;-7.1;208.04;-2.37;127.01;3.64;8.74;-233.12;-20.94;249.63;5.75;6.66;-4.33
1;-107.24;-33.32;8.38;59.26;34.02;-14.03;-7.1;-244.77;-110.28;7.06;-43.04;24.41;-12.17;10.7;5.54;78.6;4.49;10.12;-250.73;-31.61;117.06;9.04;3.32;-0.59
1;100.79;43.08;7.46;218.21;91.96;-10.13;-8.19;-214.86;-155.02;6.85;418.47;15.49;-6.97;191.68;5.68;161.06;3.54;8.04;-380.34;-19.06;318.54;7.07;6.94;-4.26
1;-110.28;-29.11;7.95;53.13;40.69;-13.33;-7.21;-229.42;-149.02;7.44;-45.69;26.1;-12.29;10.23;10.29;100.54;4.55;9.54;-324.94;-31.37;152.37;5.03;3.82;-0.35
1;93.3;42.44;6.55;207.3;104.02;-14.34;-7.27;-240.23;-116.26;5.63;380.65;15.09;-6.74;207.9;-1.42;129.48;3.17;8.19;-274.87;-21.72;238.36;5.16;6.64;-4.2
1;-109.52;-29.71;7.35;55.77;29.88;-14.67;-7;-224.23;-95.18;7.76;-48.69;23.03;-12.4;6.71;-1.27;79.99;4.25;9.46;-277.74;-30.44;111.17;5.63;3.65;-0.19
1;93.66;43.26;7.53;219.7;100.84;-15.86;-11.15;-272.36;-134.76;6.36;398.48;18.68;-7.29;211.08;19.54;156.15;3.94;9.09;-296.02;-25.48;319.93;4.35;6.65;-4.09
1;-114.86;-25.66;7.55;59.9;31.18;-9.09;-9.8;-247.12;-95.63;7.9;-51.51;26.04;-12.06;13.92;-0.37;87.81;4.37;9.25;-280.48;-32.87;149.59;6.88;3.96;-0.61
1;100.45;43.82;6.94;213.8;103.37;-10.77;-8.18;-209.43;-117.37;5.74;410.96;17.18;-6.37;228.02;-6.57;118.58;3.78;7.76;-173.59;-20.13;198.91;5.85;7.37;-4.05
1;-105.12;-28.63;7.83;57.15;41.37;-16.32;-9.59;-218.7;-130.42;8.64;-28.11;26.23;-12.49;17.39;17.79;78.79;4.82;9.73;-174.8;-32.34;129.26;8.04;3.48;-0.64
1;104.31;42.99;7.78;220.85;103.84;-13.8;-7.75;-241.88;-163.94;5;412.14;15.14;-6.42;204.42;-5.4;117.28;3.43;7.08;-218.41;-20.42;205.68;7.64;7.88;-4.4
1;-108.19;-30.86;8.06;57.52;41.96;-10.17;-8.12;-231.96;-138.43;7.82;-44.81;24.06;-12.02;13.49;-0.18;81.09;4.68;9.32;-210.26;-32.74;131.97;8.3;3.97;-0.61
1;94.9;36.43;7.31;222.6;99.5;-13.19;-7.68;-280.03;-133.99;7.56;402.13;14.07;-6.8;195.51;7.49;118.77;3.66;7.57;-207.83;-20.5;213.32;6.61;7.08;-3.69
1;-106.4;-25.86;7.52;58.75;30.93;-15.2;-8.41;-227.2;-95.04;9.12;-36;21.96;-12.4;5.58;2.87;76.3;4.49;9.75;-215.44;-30.17;105.44;4.1;3.5;-0.41
1;89.64;37.44;6.86;223.53;102.22;-14.83;-7.72;-260.29;-113.23;9.01;416.97;15.27;-7.07;203.24;3.72;124.15;3.93;7.33;-218.96;-19.58;262.72;4.26;7.31;-3.26
1;-108.28;-20.57;7.76;56.3;31.75;-10.63;-8.13;-224.14;-85.97;7.42;-38.67;28.43;-12.24;18;3.43;71.44;4.25;9.76;-240.98;-30.85;67.82;4.71;3.52;-0.7
1;90.58;33.84;6.84;225.31;102.14;-12.8;-7.68;-264.62;-131.58;6.37;409.59;13.96;-6.83;194.09;-0.76;110.51;3.8;6.78;-190.36;-20.11;238.41;4.89;7.44;-3.51
1;-109.32;-34.98;7.77;56.6;31.74;-14.35;-8.08;-223.6;-102.73;7.77;-35.72;21.09;-12.63;2.94;17.38;89.26;4.79;9.81;-188.85;-28.85;169.16;3.74;3.46;-0.47
1;102.66;43.84;7.62;226.36;99.87;-13.42;-7.83;-254.24;-146.95;5.28;417.24;15.91;-6.74;193.57;-9.55;117.41;3.23;6.64;-241.29;-20.82;183.74;7.72;7.69;-4.25
1;-111.45;-29.27;8.02;61.98;33.96;-10.85;-9.12;-227.14;-120.49;5.97;-31.32;20.09;-12.82;25.85;14.47;74.46;5.15;9.53;-216.13;-29.54;114.42;0.24;2.58;0.2
1;92.64;39.08;7.01;206.83;94.21;-8.96;-7.22;-249.53;-167.43;9.85;374.98;13.07;-7.16;160.69;-9.05;122.12;3.63;5.66;-218.46;-30.53;202.07;6.52;7.02;-3.45
1;-111.75;-20.44;8.39;49.2;36.95;-12.26;-8.72;-203.73;-95.67;8.47;-47.44;31.91;-11.46;17;15.51;74.17;5.28;11.04;-217.64;-32.49;101.12;11.08;2.48;-0.41
1;94.77;31;6.67;219.38;102.03;-6.64;-8.87;-265.16;-177.52;4.51;398.45;13.87;-7.22;180.12;-19.57;113.39;3.06;5.03;-222.57;-22.76;209.4;6.17;8.24;-3.72
1;-106.58;-25.21;7.55;57.34;32.71;-13.22;-9.84;-218.53;-89.99;8.06;-36.68;22.71;-12.22;11.61;16.94;57.83;5.44;10.43;-119.71;-28.84;108.26;2.39;2.74;-0.02
1;100.04;38.2;8.39;222.56;106.45;-9.67;-7.17;-281.37;-167.36;14.99;399.03;13.21;-8.2;197.55;-7.27;103.08;4.41;5.81;-259.26;-35.57;195.42;5.22;7.21;-3.48
1;-108.68;-32.95;7.77;59.7;38.32;-10.52;-13.31;-248.07;-119.64;8.23;-49.85;36.1;-11.33;21.11;20.33;91.28;5.23;10.9;-286.02;-28.54;129.92;12.96;3.6;-0.86
2;63.31;37.53;5.1;185.3;95.55;-6.28;-8.43;-265.98;-115.52;5.59;337.53;19.43;-7.39;195.54;-1.07;106.43;3.5;6.95;-141.6;-16.51;268.74;1.93;7;-3.29
2;-95.98;-28.62;5.38;47.88;22.57;-11.46;-9.83;-177.59;-72.29;5.09;-27.63;18.62;-12.11;8.35;7.88;74.87;4.47;9.44;-197.1;-20.59;97.45;-2.26;1.8;0.08
2;76.55;42.41;5.43;207.71;100.9;-5.35;-10.62;-263.77;-133.15;6.11;373.85;21.73;-7.65;199.45;1.88;115.59;3.97;7.11;-124.43;-16.8;303.6;4.21;7.47;-3.78
2;-94.89;-25.86;5.47;36.47;22.27;-12.66;-6.35;-182.09;-63.77;7.85;-50.68;19.85;-12.1;8.37;5.51;66.41;3.75;8.8;-139.73;-20.45;122.83;-3.17;2.77;-0.07
2;68.39;34.44;5.7;192.78;95.79;-5.45;-8.16;-253.89;-158.55;4.11;350.08;17.52;-7.7;182.21;-9.41;105.22;3.7;6.72;-137.27;-20.07;277.17;2.89;6.85;-3.46
2;-92.03;-29.76;5.34;44.39;24.4;-9.75;-8.67;-170.71;-75.16;9.04;-25.53;19.8;-11.58;3.65;16.18;83.5;4.8;8.57;-138.65;-20.53;149.84;-4.1;1.95;0.07
2;86.75;55.37;5.59;194.55;106.55;-8.47;-11.24;-263.34;-148.9;6.44;342.76;21.68;-7.72;237.76;1.07;116.26;3.5;7.55;-154.39;-18.62;255.62;2.13;7.72;-4.69
2;-96.58;-33.24;6.1;44.66;27.5;-14.95;-7.9;-192.2;-82.14;12.59;-39.04;25.01;-12.46;5.06;15.39;89.06;5.32;10.97;-223.57;-20.92;112.41;-0.51;2.11;-0.32
2;68.31;44.05;4.38;194.48;99.93;-9.52;-11.63;-286.17;-129.05;9.8;337.4;24.63;-7.63;200.52;0.94;140.25;5.16;8.58;-166.85;-19.52;354.6;0.96;7.37;-3.62
2;-89.36;-17.53;4.82;34.14;24.25;-13.71;-7.3;-152.35;-74.76;7.02;-45.23;15.02;-11.9;16.05;8.18;49.85;3.93;7.96;-99.88;-20.47;78.66;-3.3;1.6;0.04
2;63.7;34.13;5.04;192.42;91.11;-9.86;-8.96;-291.56;-152.69;6.7;341.26;18.77;-7.73;179.35;-6.41;108.62;3.43;6.77;-116.72;-16.89;281.93;2.07;7.03;-3.19
2;-91.95;-26.99;5.29;42.65;24.13;-11.59;-8.39;-184.51;-85.63;9.87;-33.76;17.38;-11.5;4.5;9.44;62.65;4.52;7.89;-132.01;-19.04;115.33;-2.91;1.7;0.08
2;76.38;41.5;5.06;190.87;98.96;-3.33;-8.28;-287.7;-157.34;2.79;322.73;17.39;-7.69;197.5;3.85;106.07;2.96;6.03;-116.42;-15.84;244.71;2.21;7.45;-3.74
2;-83.7;-27.03;4.93;42.28;24.19;-10.38;-6.55;-180.99;-72.72;7;-29.11;19.31;-11.96;8;15.57;73.74;3.97;8.56;-134.26;-19.51;137.46;-3.94;2.99;-0.5
2;55.78;39.64;5.12;197.91;91.04;-7.74;-8.02;-272.78;-145.74;5.91;340.75;14.68;-7.72;180.42;-12.68;102.45;3.73;6.64;-138;-18.9;247.76;2.14;6.28;-3.54
2;-97.91;-28.21;6.17;41.8;24.39;-10.93;-7.83;-162.72;-71.75;9.51;-30.59;22.88;-11.67;10.37;10.64;61.21;4.51;9.07;-153.46;-22.67;100.79;-0.49;1.47;0.11
2;103.02;58.86;5.43;197.44;104.76;-2.01;-9.74;-288.41;-149.21;7.7;345.94;18.37;-7.47;204.13;-0.97;117.01;3.86;6.43;-166.86;-15.93;265.61;4.73;9.43;-4.61
2;-96.3;-29.89;4.14;38.78;23.47;-10.88;-6.24;-187.55;-90.57;8.88;-49.53;15.16;-12;-0.34;13.02;51.91;4.02;7.53;-77.38;-18.39;89.96;-3.76;1.82;0.13
2;74.68;38.23;4.73;194.97;89.47;-6.47;-9.35;-265.48;-132.84;3.67;334.28;20.04;-7.39;184.7;1.38;109.7;3.83;6.54;-185.32;-16.7;240.47;3.28;7.37;-3.8
2;-97.82;-27.75;5;43.18;23.75;-12.09;-7.41;-169.75;-66.92;6.53;-21.7;21.82;-12.06;11.76;0.45;81.02;3.99;8.74;-145.36;-20.64;146.7;-3.66;1.44;0.48
2;75.89;41.42;4.89;191.88;100.85;-4.76;-9.25;-248.73;-119.23;4.72;336.6;16.74;-7.41;210.96;-4.28;97.92;3.56;6.19;-153.23;-16.34;208.75;2.2;7.59;-4
2;-92.31;-35.12;4.9;40.91;24.09;-11.28;-8.68;-171.24;-79.48;5.36;-32.41;16.1;-12.24;-1.32;16.21;69.46;4.26;8.48;-162.53;-20.71;115.92;-3.37;2.25;-0.11
2;74.08;45.79;5.62;200.03;107.43;-7.08;-10.01;-289.07;-159.24;7.19;338.65;17.32;-7.4;218.63;-1.15;103.57;4.17;6.72;-147.77;-18.22;219.06;4.8;7.14;-3.91
2;-100.44;-24.76;5.11;46.23;27.9;-8.88;-9.86;-226.41;-78.96;11.71;-51.62;18.57;-11.89;17.2;3.61;48.29;5.07;7.93;-124.78;-19.06;70.11;-2.9;2.92;-0.16
2;82.75;35.64;6.26;211.93;94.32;-9.6;-9.38;-302.88;-163.62;5.17;371.79;17.5;-7.41;186.67;-2.34;125.34;4.02;7.74;-173.61;-20.21;306.52;5.2;6.93;-3.39
2;-97.72;-37.65;5.24;48.15;22.78;-7.33;-7.68;-194.92;-83.57;9.4;-25.14;18.45;-11.71;-2.31;9.75;78.44;4.23;8.18;-179.39;-19.51;116.19;-2.64;2.94;0.01
2;72.05;34.26;5.15;199.87;87.5;-7.75;-8.4;-286.99;-125.38;8.01;356.63;17.15;-7.4;171.28;5.95;109.94;3.7;6.9;-132.29;-17.4;274.89;4.59;7.45;-3.03
2;-93.89;-20.77;5.37;42.22;23.16;-9.96;-9.73;-173.09;-80.75;6.16;-19.37;18.73;-11.87;9.67;6.22;67.32;4.61;9;-164.31;-20.31;96.12;-1.95;1.68;-0.03
2;72.63;40.94;6.01;207.14;101.5;-4.65;-7.92;-323.06;-167.59;9.78;359.3;17.28;-7.55;203.08;-19.92;106.36;3.84;6.7;-148.06;-20.14;261.25;5.95;7.67;-3.59
2;-96.92;-37.25;5.41;48.51;25.12;-9.11;-8.24;-184.37;-96.8;6.28;-17.56;17.17;-12.01;-3.27;10.67;52.49;4.39;8.23;-96.31;-20.28;87.88;-2.67;1.78;0.21
2;77.01;43.08;6.04;207.62;109.95;-6.48;-10.56;-292.42;-151.04;5.78;357.34;17.94;-7.21;210.91;3.39;100.38;4.16;7.02;-121.23;-20.3;231.95;3.15;8.06;-3.89
2;-99.84;-30.36;5.29;50.23;21.65;-11.21;-9.91;-192.35;-67.34;5.96;-31.29;16.97;-12.24;6.16;12.65;59.59;4.89;9.28;-117.66;-19.63;116.1;-2.21;1.19;0.61
2;77.07;43.41;6.67;213.3;111.24;-6.16;-10.37;-274.54;-157.1;12.66;368;16.91;-7.49;210.61;-9.11;97.07;4.59;6.41;-173.81;-21.94;215.57;4.7;7.27;-3.73
2;-102.11;-39.44;6.07;56.59;22.89;-9.82;-9.16;-203.9;-84.97;13.76;-28.63;22.49;-12.08;-5.95;22.2;78.02;5.56;9.97;-179.24;-22.65;112.98;-1.07;2.32;0.16
2;71.62;40.61;6.05;208.32;108.63;-9.06;-10.67;-262.87;-139.33;4.88;361.43;19;-7.29;217.34;-12.79;109.72;4.07;7.06;-139.92;-20.4;239.22;3.95;7.54;-3.95
2;-98.8;-28.78;5.66;46.42;22.19;-13.53;-9.51;-178.15;-72.02;5.34;-14.04;21.87;-12.05;10.45;9.15;54.7;4.7;9.5;-133.72;-21.39;89.68;-3.28;1.32;0.79
2;80.21;39.1;6.19;200.19;101.27;-4.22;-9.22;-271.46;-148.44;3.7;361.11;18.75;-7.3;194.68;1.29;110.91;3.53;6.08;-124.95;-19.37;259.33;2.96;8.14;-4.25
2;-99.52;-23.08;6.07;39.13;30.65;-15.31;-9.89;-191.63;-80.6;7.55;-41.29;22.9;-11.67;20.22;-0.08;68.52;4.93;9.67;-137.2;-20.58;97.52;-3.49;1.89;0.21
2;80.94;26.58;6.89;208.85;89.26;0.53;-7.88;-287.66;-133.25;2.4;386.1;15.95;-7.51;170.54;13.97;106.93;3.33;5.59;-162.85;-21.69;245.23;3.85;8.53;-3.49
2;-93.72;-11.24;7.41;45.03;30.55;-15.32;-10.46;-210.37;-65.27;5.49;-24.61;25.24;-12.03;31.34;-0.34;73.61;5.05;10.91;-180.01;-25.52;101.37;-2;2.01;-0.01
2;71.6;34.54;7.99;207.67;101.01;-2.75;-9.4;-272.98;-167.37;4.04;382.82;20.87;-8.09;189.81;-2.14;114.93;4.13;6.46;-186.57;-28.14;256.43;2.74;7.74;-3.62
2;-95.1;-20.04;7.2;40.35;28.9;-13.1;-9.7;-169.03;-79.3;5.37;-30.15;24.45;-11.11;20.57;14.35;60.83;4.72;10.21;-107.22;-24.85;135.43;-0.78;2.51;-0.31
2;78.54;40.71;8.53;205.21;104.34;-6.31;-10.87;-266.48;-193.41;7.18;374.59;17.57;-7.95;187.82;-9.91;111.3;4.15;6.97;-136.54;-31.44;274.4;4.17;7.74;-4.01
2;-94.04;-24.25;9.4;42.79;33.4;-16.02;-8.88;-172.05;-99.13;13.3;-27.46;22.69;-11.41;14.18;17.96;62.23;5.48;10.73;-86.53;-33.72;113.81;7.4;2.36;-0.48
2;70.43;34.45;6.77;207.2;104.78;-4.63;-8.88;-277.58;-170.8;9.64;364.01;15.47;-7.63;198.04;-3.91;101.1;3.75;6.38;-132.87;-26.07;240.42;2.99;7.37;-3.55
2;-104.98;-27.7;8.43;48.59;30.59;-12.71;-9.15;-196.5;-89.85;13.91;-34.83;25.15;-11.94;14.8;7.25;69.83;6.01;11.39;-161.99;-30.65;125.31;4.76;2.26;0.04
2;83.43;41.49;6.48;201.62;102.68;-2.98;-9.5;-240.47;-140.55;2.16;366.92;18.2;-7.14;195.76;-6.41;99.36;3.46;5.84;-144.93;-20.59;208.42;3.43;8.45;-4.44
2;-98.23;-30.77;7.88;44.14;30.98;-14.56;-8.76;-172.48;-97.53;8.83;-32.18;21.24;-12.35;11.43;18.16;64.31;5.33;10.54;-133.28;-25.99;113.81;0.6;1.92;0.07
2;71.46;34.19;7.33;197.87;100.57;-2.75;-9.99;-245.77;-169.61;8.88;365.59;18.65;-7.25;181.3;-14.05;97.79;4.4;6.22;-169.81;-27.53;183.77;3.59;8.21;-4.22
2;-104.36;-27.31;8.75;51.12;31.21;-14.62;-9.99;-185.28;-81.41;14.19;-31.14;21.86;-12.07;19.67;10.91;62.28;6.27;11.42;-104.93;-31.62;117.91;1.51;1.56;0.55
2;85.52;41.09;9.05;205.7;110.87;-4.19;-10.21;-262.25;-211.72;15.56;397.4;20.78;-8.08;193.03;-6.16;104.7;5.37;6.62;-188.29;-34.57;223.33;3.67;8.13;-3.88
2;-102.91;-26.53;11.18;52.68;40.94;-15.92;-12.75;-203.4;-124.69;12.08;-21.71;27.17;-10.85;18.22;22.13;60.24;6.64;12.17;-83.37;-31.29;126.75;15.68;1.49;-0.52
2;73.66;33.93;7.57;202.83;103.36;-1.47;-10.74;-257.56;-196.55;10.21;363.75;18.68;-7.31;171.15;-2.84;100.83;3.75;5.49;-170.71;-30.61;237.1;5.87;8.22;-4.25
2;-111.23;-26.91;10.89;54.62;45.62;-19.86;-10.84;-192.77;-105.89;17.7;-24.15;28.87;-11.73;30.76;9.81;67.57;6.97;12.72;-116.05;-34.64;112.39;12.54;1.51;0.11
2;91.92;44.23;6.27;198.32;98.88;-3.38;-11.58;-221.5;-146.29;3.66;387.91;19.89;-6.5;170.98;-2.79;125.85;3.96;7.16;-164.92;-20;305.59;1.76;8.67;-4.7
2;-108.15;-26.84;9.7;54.72;33.97;-15.48;-13.24;-210.01;-108.25;11.74;-24.05;22.73;-13.4;27.11;15.37;78.5;7.12;12.75;-138.05;-32.39;137.74;3;2.01;0.51
2;77.51;35.9;8.58;219.52;112.6;-7.03;-9.52;-288.51;-185.62;7.73;388.82;17.17;-6.98;199.85;-5.69;97.4;4.87;6.14;-145.07;-25.63;197.67;5.93;8.35;-3.94
2;-110.35;-28.25;9.17;49.21;30.51;-11.71;-10.26;-188.28;-81.02;14.81;-35.5;23.03;-12.07;15.42;9.29;70.6;6.32;10.85;-127.85;-31.68;124.48;3.66;1.49;0.16
2;94.2;40.36;7.73;207.57;96.73;0.19;-8.79;-252.92;-145.97;2.81;399.01;17.69;-7.39;175.86;1.24;109.36;3.01;5.37;-183.33;-24.32;243.48;5.15;8.86;-4.41
2;-105.59;-19.25;9.06;48.74;33.52;-14;-9.22;-206.47;-85.43;9.23;-36.63;24.54;-12.63;27.66;5.46;64.16;6.11;11.85;-175.6;-29.17;105.89;2.75;1.78;0.46
2;74.66;40.17;9.09;207.18;112.47;-5.45;-10.19;-277.88;-198.56;16.38;369.16;18.32;-7.84;207.86;-9.33;91.35;5.43;6.02;-147.77;-33.9;156.68;3.9;8.13;-4.19
2;-109.38;-31.81;9.81;50.96;39.49;-16.94;-14.74;-194.57;-132.7;11.89;-35.78;34.09;-11.18;25.08;23.44;68.22;6.34;12.63;-152.03;-23;119.35;15.43;1.5;-0.65
2;93.43;48.88;6.75;214.68;117.26;-3.06;-10.25;-291.59;-157.57;6.08;395.65;17.53;-7.01;217.79;-9.55;91.31;3.92;5.8;-150.5;-20;193.32;4.5;9.15;-4.86
2;-99.02;-30.29;7.3;47.31;26.67;-14.57;-9.71;-201.87;-74.28;7.28;-35.43;23.85;-13.16;3.84;12.48;76.76;5.46;12.02;-186.6;-26.69;97.69;-1.96;2.65;-0.23
2;68.66;32.31;7.51;214.1;105.75;-13.01;-10.77;-249.48;-180.61;8.05;382.73;18.29;-7.05;207.74;-2.17;109.6;4.92;7.09;-167.09;-29.87;200.01;4.39;7.41;-3.84
2;-108;-21.96;8.73;53.49;33.8;-14.45;-9.46;-190.09;-89.3;13.52;-27.08;25.13;-11.36;17.12;14.65;48.43;5.92;10.93;-106.43;-33.12;99.43;7.12;2.01;0.09
2;85.02;43.27;9.11;213.28;112.13;-3.53;-11.49;-279.68;-189.75;12.77;380.14;17.32;-7.58;208.49;-11.53;100.14;4.39;6.09;-137.9;-31.19;206.33;6.4;8.88;-4.39
2;-101.74;-25.6;8.82;53.88;34.54;-16.23;-9.6;-206.55;-99.79;14.24;-26.42;18.26;-11.8;14.53;17.68;54.67;6.19;11;-96.18;-29.23;102.56;6.6;2.2;-0.17
2;79.96;29.4;8.82;220.87;106.57;-6.79;-9.28;-301.1;-188.47;16.32;387.88;18.68;-8.15;193.51;-4.28;126.95;5.21;6.31;-199.04;-33.18;252.59;4.6;7.63;-2.98
2;-115.65;-21.18;8.29;47.21;39.22;-17.38;-13.51;-198.58;-110.14;9.29;-40.96;36.39;-11.28;26.36;8.51;74.03;6.02;12.61;-166.08;-22.04;111.84;12.37;1.18;-0.76
2;115.88;49.95;7.78;203.16;103.65;0.14;-10.34;-250.55;-156.17;6.67;397.69;18.46;-6.89;205.66;2.91;123.02;3.56;5.68;-176.61;-25.96;259.41;4.38;9.55;-5.09
2;-103.87;-25.94;8.95;51.75;38.32;-12.96;-8.04;-208.64;-98.38;15.45;-36.95;29.37;-12.67;14.9;24.52;99;6.08;12.19;-212.58;-33.76;141.61;5.88;2.92;-0.54
2;71.18;34.93;7.55;203.31;112.75;-16.18;-11.26;-234.8;-188.93;9.44;366.72;16.72;-7.2;221.91;-34.01;101.8;4.62;8.07;-190.19;-28.92;192.26;4.33;6.95;-4.1
2;-114.58;-42.55;9.6;55.46;34.06;-14.32;-10.9;-192.04;-114.47;17.52;-38.04;23.99;-12.58;-2.24;14;65.6;7.01;12.12;-154.8;-33.37;127.78;8.42;1.66;0.75
2;89.88;44.02;6.11;188.34;98.12;0.21;-10.23;-207.52;-150.41;-0.13;353.91;17.45;-6.77;177.76;-4.85;111.91;3.21;5.21;-170.19;-20.13;228.03;2.45;8.75;-5.2
2;-95.8;-20.59;9.36;47.2;38.06;-14.63;-9.98;-186.74;-110.28;9.4;-30.53;17.74;-13.32;27.4;19.99;41.23;6.13;10.72;-77.81;-30.26;93.77;3.88;1.92;-0.02
2;61.52;30.03;7.97;191.08;102.64;-7.31;-10.88;-239.59;-185.6;16.35;354.25;18.09;-8.44;190.74;-9.53;97.26;5.75;7.05;-191.56;-37.29;185.34;0.7;6.46;-3
2;-107.45;-35.11;10.47;53.32;42.77;-15.89;-15.55;-189.45;-139.02;8.03;-31.85;34.31;-10.71;13.53;27.43;71.67;6.4;13.05;-182.33;-24.29;129.87;20.58;1.9;-1.21
2;105.89;52.93;7.14;203.75;110.82;-4.44;-11.04;-290.21;-177.12;4.45;377.59;18.77;-7.01;210.31;-0.75;96.5;3.67;5.45;-154.79;-22.16;201.69;5.75;8.94;-4.89
2;-107.77;-26.85;8.45;56.6;36.58;-12.33;-13.11;-242.38;-120.02;17.14;-42.77;20.38;-12.26;10.27;19.66;61.95;7.12;10.09;-147.99;-29.74;99.45;5.64;3.01;-0.46
2;80.45;31.81;8.2;233.19;99.28;-13.66;-9.74;-316.01;-151.61;12.66;422.11;17.08;-7.84;204.32;-8.12;136.47;4.65;8.67;-208.6;-29.19;301.14;4.72;6.46;-3.05
2;-112.08;-17.75;8.9;48.53;26.79;-14.47;-12.06;-220.01;-75.12;10.65;-52.51;31.8;-11.75;12.3;-7.71;65.4;5.7;12.94;-189.58;-27.82;72.69;5.95;2.87;-0.47
2;89.47;29.68;7.92;217.24;105.35;-6.93;-11.59;-278.06;-178.53;4.71;403.57;18.48;-7.29;198.86;-4.2;134.05;4.52;7.69;-193.43;-28.15;306.5;4.46;7.99;-3.79
2;-114.4;-31.19;8.61;56.68;28.78;-12.82;-9.43;-227.56;-91.4;11.09;-51.54;25.7;-12.16;-1.33;16.35;64.68;5.48;11.37;-118.77;-33.64;123.68;5.4;2.43;0.11
2;78.3;40.01;7.68;228.29;115.05;-11.81;-8.76;-325.87;-195.49;11.76;393.45;15.72;-8.31;210.45;-14.04;112.52;4.38;7.02;-174.31;-31.14;242.05;3.64;7.23;-3.3
2;-105.12;-27.51;9.21;43.62;31.34;-16.16;-15.89;-189.27;-98.65;7.23;-49.44;34.1;-10.8;6.79;9.6;56.34;5.89;12.47;-175.35;-23.22;70.65;13.66;2.53;-0.77
2;85.74;28.16;7.69;203.38;105.47;-3.95;-11.98;-226.82;-163.87;6.24;376.04;17.5;-8.12;189.37;-8.76;115.57;3.87;6.28;-147.82;-29.68;267.3;3.77;8.47;-3.88
2;-111.42;-30.22;8.29;47.71;29.08;-11.82;-11.19;-198.07;-97.57;11.76;-39.88;20.72;-12.09;7.04;24.33;58.54;6.02;10.78;-77.29;-31.52;142.59;5.76;1.63;0.54
2;82.5;44.8;7.76;201.64;104.03;-8.06;-10.59;-225.39;-144.01;2.1;376.59;20.61;-7.22;202.7;-4.12;140.5;3.2;6.7;-196.5;-26.8;313.21;5.93;8.5;-5.03
2;-99.33;-16.74;9.39;46;31.29;-14.17;-9.84;-201.13;-84.15;8.88;-35.9;22.79;-12.81;21.28;9.09;54.83;6.02;11.46;-123.66;-33.36;107.23;2.12;1.74;0.54
2;76.79;35.13;7.9;200.17;98.77;-5.11;-9.86;-257.98;-177.51;5.36;362.33;22.57;-7.47;184.86;1.86;136.72;4.12;7.3;-221.6;-25.05;250.38;5.27;6.91;-4.06
2;-110.79;-29.84;8.63;55.16;35.75;-12.4;-9.51;-227.2;-125.53;7.55;-39.37;25.73;-12.13;15.26;10.68;68.45;5.49;11.57;-195.65;-32.86;124.29;4.13;2.47;-0.38
2;90;49.85;8.67;215.02;121.75;-5.31;-8.92;-284.71;-228.85;16.09;379.34;16.36;-8.04;223.32;-2.59;132.32;4.69;5.99;-200.53;-35.41;275.74;6.1;7.59;-3.91
2;-120;-31.28;9.78;50.4;40.92;-13.76;-13.58;-204.1;-135.24;12.51;-40.9;31.3;-11.06;29.37;23.47;70.09;6.17;12.35;-127.62;-24.62;110.13;17.61;1.57;-0.54
2;106.2;55.84;7.31;210.49;119.52;-6.15;-10.5;-271.51;-181.98;5.31;381.58;16.88;-6.82;234.2;-6.53;106;3.14;5.6;-150.58;-24.01;210.81;5.4;9.46;-5.22
2;-101.27;-27.6;9.19;45.8;37.79;-17.78;-10.95;-180.01;-99.65;13.95;-39.23;35.02;-12.62;14.16;4.07;99.61;6.6;13.89;-265.45;-30.49;127.55;7.74;2.14;0.09
2;78.04;29.15;8.04;216.44;103.69;-8.92;-9.59;-265.38;-144.79;6.93;396.04;17.67;-7.65;207.48;7.74;111.7;3.91;7.08;-147.54;-25.87;218.25;5.15;8.07;-3.66
2;-118.97;-25.2;7.8;51;31.34;-13.5;-8.71;-219.98;-78.68;10.82;-59.61;25.99;-12.22;17.8;5.12;59.07;5.27;11.46;-162.69;-29.86;65.35;1.22;1.67;-0.04
2;99.67;46.51;8.23;215.53;109.94;-4.59;-9.45;-268.51;-184.1;13.86;398.03;17.41;-7.45;188.13;-8.27;114.57;4.03;5.74;-180.27;-31.94;252.15;6.39;8.8;-4.6
2;-112.32;-28.17;9.04;54.53;32.75;-13.2;-8.68;-215.64;-97.87;14.23;-43.61;31.62;-12.07;14.92;21.87;69.24;6.01;12.22;-173.41;-31.33;104.93;6.69;2.18;-0.12
2;92.34;37.36;7.91;231.06;103.53;-13.28;-9.36;-284.91;-175.73;7.85;412.86;15.34;-7.46;196.08;4.04;111.06;3.95;7.6;-203.53;-30.42;227.81;6.48;7.36;-3.96
2;-117.78;-22.32;8.23;55.58;30.52;-12.49;-9.6;-247.5;-88.03;14.47;-52.65;28.24;-11.93;16.17;4.91;66.57;5.84;11.57;-207.1;-32.87;88.06;3.68;3.13;-0.44
2;81.46;40.77;8.76;219.91;113.49;-12.44;-8.83;-261.53;-168.37;13.24;384.04;16.02;-7.65;222;3.74;99.83;4.53;7.55;-162.34;-32.21;215.72;5.51;7.34;-3.81
2;-107.39;-15.95;8.92;50.61;36.68;-15.32;-10.31;-197.74;-91.18;11.38;-35.8;27.49;-11.95;26.06;5.91;79.24;6.43;13.22;-206.46;-28.72;115.55;7.23;1.92;-0.37
2;88.53;35.85;7.2;214.01;114.82;-8.81;-9.79;-225.08;-180.85;1.03;407.31;17.82;-7.11;209.78;-14.41;124.61;3.76;7.27;-216.02;-21.95;276.13;4.65;8.01;-4.5
2;-105.94;-29.19;9.15;56.37;37.29;-13.28;-9.4;-222.88;-131.29;11.05;-37.33;29.19;-12.4;13.49;21.87;66.88;6.01;11.74;-178.96;-31.13;124.63;6.85;3.13;0.01
2;77.98;34.79;8.8;218.7;107.8;-11.23;-11.18;-257.42;-215.16;11.05;390.11;14.49;-7.6;193.7;-9.75;119.92;4.2;6.85;-226.92;-36.54;247.54;7.77;7.01;-3.83
2;-118.36;-28.37;9.31;57.77;34.82;-15.69;-9.59;-231.15;-104.56;14.12;-36.78;27.58;-11.43;26.48;13.4;70.77;6.08;11.99;-134.69;-31.5;153.03;11.01;1.62;0.27
2;107.09;45.82;8.45;216.84;105.54;-10;-9.67;-259.01;-178.93;12.95;400.78;16.82;-7.48;199.96;3.07;121.79;4.12;6.17;-198.82;-32.43;223.51;6.29;8.16;-4.56
2;-117.38;-31.44;9.3;53.63;38.12;-15.47;-8.92;-226.26;-103.28;15.58;-51.08;33.65;-11.92;16.82;12.68;86.86;6.6;13.5;-212.21;-30.57;120.04;10.39;2.2;-0.03
2;87.01;48.34;7.56;213.67;123.71;-10.32;-10.3;-254.96;-159.84;12.56;397.6;18.52;-7.48;238.9;-9.6;109.8;4.31;7.09;-200.71;-31.9;221.38;4.16;7.8;-4.3
2;-106.51;-31.65;8.79;47.87;37.12;-16.36;-10.05;-216.34;-115.96;9.97;-48.71;34.29;-12.01;8.9;16.55;82.98;5.93;12.69;-240.62;-28.28;121.22;12;3.31;-0.6
2;83.35;43.44;6.96;217.34;121.61;-17.36;-10.09;-237.02;-141.37;8.54;404.35;17.24;-6.69;214.64;-4.62;116.94;3.95;8.28;-180.13;-20.86;263.87;4.75;7.48;-4.58
2;-103.12;-30.61;8.52;54.89;38.06;-15.42;-11.07;-236.97;-106.79;7.5;-36.45;32.1;-12.9;14.21;7.15;81.73;5.68;12.59;-215.78;-27.48;94.73;4.42;3.39;-0.63
2;75.55;36.48;7.7;219.8;104.77;-11.77;-9.41;-212.25;-112.79;7.21;423.42;17.92;-6.76;208.76;0.9;109.61;4.77;7.73;-200.15;-22.07;257.99;3.89;7.36;-3.86
2;-118.36;-30.74;8.4;53.85;34.53;-13.88;-9.77;-228.07;-109.97;9.91;-47.7;24.61;-13.11;11.03;8.56;78.98;5.81;11.46;-212.44;-31.01;122.88;4.12;1.6;0.48
2;108.28;47.02;8.97;210.72;100.29;-5.58;-8.45;-244.81;-196.81;24.97;406.77;15.72;-7.13;187.71;-8.05;136.31;5.63;5.67;-249.02;-36.84;273.97;11.77;8.81;-4.16
2;-114.55;-25.58;10.23;52.14;38.48;-16.46;-10.31;-225.59;-109.93;22.79;-52.7;28.69;-11.1;19.16;31.03;70.06;7.12;11.95;-113.03;-27.59;131.44;13.11;2.32;-0.65
2;88.96;36.78;6.83;220.03;106.72;-10.59;-10;-267.21;-177.4;4.58;415.29;16.22;-7.21;212.25;-15.28;104.54;3.15;6.53;-190.85;-20.72;219.65;6.73;8.16;-4.44
2;-107.65;-29.26;8.47;52.5;27.87;-11.92;-8.54;-213.25;-98.55;10.08;-40.7;24.82;-12.3;2.9;17.3;73.94;5.25;10.82;-177.67;-29.42;117.2;3;2.53;0
2;81.4;40.79;8.39;218.16;105.57;-16.34;-10.29;-236.65;-186.36;4.32;412.57;16.52;-7.46;197;1.58;110.63;3.02;8.18;-165.4;-30.11;254.28;7.59;7.77;-4.39
2;-113.38;-25.19;9.42;50.62;36.3;-12.45;-10.16;-229.02;-109.54;9.69;-39.98;34.9;-11.93;19.24;14.84;70.74;5.86;12.66;-179.07;-35.83;126.6;7.45;2.3;-0.07
2;92.59;50.59;6.54;212.8;105.24;-5.59;-9.23;-248.54;-126.55;0.68;397.25;17.57;-7.1;212.09;2.55;102.27;3.04;6.11;-151.8;-20.11;239.4;4.78;8.35;-4.57
2;-107.55;-24.48;8.62;51.48;35.5;-13.73;-9.39;-213.77;-107.58;7.03;-38.61;23.15;-12.69;16.36;0.44;79.8;5.5;11.52;-190.66;-27.71;128.18;5.46;2.33;0.27
2;77.12;39.46;8.92;227.41;111.73;-11.21;-10.02;-284.86;-175.1;7.18;407.47;19.62;-7.7;212.54;3.95;133.27;4.4;8.97;-167;-27.3;283.37;5.04;7.51;-4.02
2;-110.91;-27.57;7.8;58.39;31.7;-14.73;-9.45;-234.86;-99.57;6.58;-44.56;28.52;-12.76;19.39;20.64;59.04;5.45;12.37;-152.74;-28.32;123.25;3.68;2.15;-0.08
2;81.4;51.96;7.6;227.72;122.23;-9.92;-12.04;-290.81;-158.65;7.45;405.78;20.5;-7.03;247.75;4.77;120.07;5.16;7.02;-175.55;-23.18;200.31;4.31;7.92;-4.5
2;-109.08;-24.46;8.12;54.76;30.07;-19.58;-8.72;-233.88;-80.29;9.14;-49.13;25.4;-12.83;15.49;-5.21;80.84;5.9;13.1;-201.95;-26.27;124.73;5.41;1.78;-0.03
2;78.47;42.7;7.73;208.42;121.7;-10.05;-13.93;-274.16;-154.78;8.35;362.91;23.15;-7.76;247.43;10.6;142.34;5.09;8.49;-235.18;-23.26;253.14;4.57;8.23;-4.55
2;-110.6;-30.63;6.9;55.09;28.21;-16.44;-7.44;-228.97;-89.05;10.76;-49.59;27.72;-12.49;10.59;0.31;75.42;5.56;11.75;-198.36;-24.87;91.2;0.23;1.53;0.18
2;78.8;44.46;7.95;222.53;112.16;-8.06;-12.26;-232.99;-134.94;5.78;410.86;20.56;-7.23;234.97;2.93;131.15;4.87;7.29;-174.84;-23.58;291.3;5.85;8.44;-4.62
2;-104.39;-27.59;7.28;52.9;28.95;-12.2;-11.82;-215.34;-77.53;6.86;-28.13;18.84;-12.85;18.82;22.77;54.08;5.6;10.26;-115.17;-24.67;114.7;-0.33;1.85;0.12
2;78.86;39.04;8.27;232.73;112.6;-12.22;-9.49;-263.46;-145.93;4.93;408.09;16.55;-7.64;217.87;-7.63;104.78;3.84;8.77;-185.39;-25.97;215.68;5.84;7.33;-3.5
2;-111.77;-39.49;7.33;53.51;28.1;-12.31;-9.49;-211.96;-82.82;7.34;-45.43;24.72;-12.33;1.42;10.82;78.83;5.16;11.32;-190.26;-27.34;123.14;-0.84;2.48;0.2
2;82.4;46.38;8.31;219.47;112.68;-9.01;-9.35;-279.28;-161.93;4.07;404.59;17.13;-7.42;210.22;4.08;120.87;3.72;6.89;-158.81;-28.5;245.38;6.05;8.62;-4.44
2;-105.06;-21.64;8.55;45.22;30.09;-10.68;-7.95;-193.67;-80.96;8.93;-41.79;21.12;-12.02;15.39;15.52;62.32;5.03;9.99;-127.97;-32.46;112.2;2.93;2.83;-0.3
2;79.8;30.03;7.21;219.35;88.07;-6.14;-10.16;-300.89;-157.13;3.34;411;16.61;-7.53;162.4;-11.79;135.43;3.39;7.06;-255.04;-22.18;295.61;6.51;7.68;-3.57
2;-109.42;-25.02;7.55;45.18;35.29;-11.71;-9.15;-211.56;-95.81;6.3;-50.47;23.29;-11.69;23.85;-1.84;56.5;5.11;10.36;-160.96;-25.89;92.07;-1.37;2.44;0.07
2;110.66;38.59;8.4;210.94;91.16;-0.04;-9.51;-264.56;-166.26;1.52;422.15;20.15;-7.38;170.25;8.92;116.83;2.99;5.54;-251.95;-24.56;215.71;6.65;8.9;-4.13
2;-103.6;-24.51;9.04;48.55;32.18;-12.32;-8.39;-203.3;-122.03;8;-37.77;22.24;-12.64;11.51;12.72;78.08;5.18;10.86;-227.68;-31.53;118.77;2.78;3.36;-0.19
2;70.81;35.25;7.16;212.79;111.27;-9.68;-8.64;-283.56;-172.65;6.57;391.87;20.35;-7.71;219.69;-0.65;117.89;3.53;7.55;-108.37;-24.86;303.79;5.59;8.12;-3.68
2;-111.38;-25.51;7.18;48.98;30.12;-16.34;-8.79;-194.99;-74.21;8.12;-45.96;19.43;-12.63;17.64;3.61;60.68;5.46;11.05;-122.67;-24.92;104.6;-0.38;1.24;0.4
2;89.09;46.12;7.23;221.26;114.63;-5.58;-10.87;-294.66;-163.16;4.55;389.86;19.89;-7.1;217.26;3.48;129.56;4.06;6.42;-155.1;-23.35;286.37;2.96;8.89;-4.68
2;-109.62;-29.85;6.45;53.39;31.08;-14.95;-10.17;-205.9;-87.1;8.27;-42.36;20.87;-13.19;16.92;0.94;57.43;5.82;11.74;-121.07;-24.58;105.88;-3.37;1.91;0.24
2;83.1;35.02;6.19;221.3;113.23;-8.52;-10.19;-271.57;-157.98;6.15;379.68;17.5;-7.11;214.3;7.16;115.88;3.9;6.14;-176.02;-21.87;225.78;4.9;7.87;-3.79
2;-112.48;-27.95;8.49;56.25;33.71;-14.1;-9.3;-214.94;-98.75;9.32;-43.46;26.27;-12.37;12.02;13.38;60.99;5.43;11.36;-173.2;-29.94;71.99;5.43;1.29;0.16
2;91.69;58.29;6.8;220.16;120.55;-0.57;-10.44;-314.28;-159.48;6.81;382.78;16.92;-6.73;228.98;4.42;121.07;3.67;4.96;-138.5;-20.77;256.89;4.97;9.49;-5.07
2;-103.21;-28.06;7.28;46.97;30.31;-18.14;-9.12;-197.44;-92.92;7.52;-41.7;22.27;-13.74;13.77;6.89;76.75;5.7;12.84;-165.64;-28.38;103.23;-1.4;1.93;-0.07
2;68.23;35.72;6.53;211.51;102.97;-10.4;-11.39;-256.02;-146.83;6.04;397;20.62;-6.98;197.74;-4.84;130.73;5.33;7.23;-211.17;-19.93;262.89;2.31;7.31;-3.76
2;-108.36;-33.5;6.75;54.79;30.27;-16.47;-8.83;-212.79;-99.04;5.98;-39.93;19.52;-12.48;14.23;11.52;66.6;5.1;11.2;-167.77;-22.7;104.46;0.26;1.75;0.58
2;89.83;45.28;6.64;215.86;99.04;-5.28;-10.81;-275.98;-126.08;1.93;402.96;17.65;-6.91;210.51;10.74;126.26;3.46;6.33;-181.37;-22.51;265.57;2.6;9.11;-4.59
2;-106.14;-23.91;6.72;44.57;29.18;-14.9;-8.37;-186.52;-79.76;6.02;-48.26;27.56;-12.97;16.15;0.66;74.27;4.71;11.16;-193.27;-23.81;92.42;-1.9;1.86;-0.07
2;76.74;42.11;6.59;221.99;112.41;-7.03;-10.06;-263.56;-123.39;5.77;413.14;18.42;-7.11;228.02;0.22;126.13;4.11;7.58;-235.04;-22.45;308.35;1.74;7.44;-3.86
2;-106.05;-39.96;7.27;55.78;30.71;-13.75;-9.9;-210.18;-95.79;5.9;-44.22;20.96;-13.12;4.66;15.25;85.95;5.2;11;-242.92;-23.5;133.43;-0.94;2.81;-0.3
2;77.91;34.91;6.98;230.69;105.4;-14.51;-9.99;-298.14;-152.74;7.58;414.63;16.83;-7.18;200.94;1.54;124.6;4.17;7.86;-228.3;-25.09;264.39;3.07;7.5;-3.48
2;-107.99;-28.5;5.59;50.82;25.95;-12.44;-8.07;-192.18;-74.66;6.54;-51.96;21.71;-12.77;12.53;-0.89;62.57;4.54;10.34;-188.08;-22.16;80.12;-2.58;2.9;0.44
2;75.7;34.14;7.32;210.68;101;-7.56;-10.37;-268.28;-152.48;4.87;385.54;18.05;-7.85;190.21;-1.87;128.88;3.72;6.71;-274.28;-26.35;248.16;4.17;7.14;-4
2;-107.7;-30.28;6.31;56.85;26.43;-12.76;-8.65;-219.82;-69.98;6.71;-33.81;22.87;-12.1;5.24;15.36;67.63;4.69;10.7;-229.07;-26.3;97.45;-1.64;2.18;0.23
2;94.5;38.39;7.41;223.89;103.82;-9.23;-8.83;-278.18;-152.53;3;405.44;15.35;-7.32;208.2;-6.76;108.42;2.63;6.4;-243.73;-24.41;227.4;6.71;8.25;-4.41
2;-102.25;-25.74;8.25;49.96;31.41;-13.49;-9.66;-235.29;-90.67;5.64;-40.25;29.92;-13.02;10.55;18.46;74.19;4.86;11.8;-244.39;-30.61;99.58;0.79;3.45;-0.65
2;72.48;41.67;7.4;222.15;113.27;-12.42;-9.24;-277.39;-167.37;7.2;400.38;16.97;-7.16;229.49;-8.77;117.27;3.89;8.04;-186.52;-25.77;273.62;5.35;7.12;-4
2;-112.6;-35.39;8.49;52.85;35.2;-16.62;-9.08;-213.34;-118.41;8.47;-45.66;23.09;-12.7;9.48;11.91;67.92;5.49;11.79;-158.53;-29.43;100.03;2.84;2.03;-0.03
2;94.74;41.71;7.29;227.31;105.74;-3.26;-9.21;-299.16;-150;3.18;408.04;17.84;-7.19;196.29;0.29;124.38;3.65;5.66;-227.37;-23.57;251.84;4.21;8.61;-4.03
2;-107.18;-23.4;8.51;52.71;32.62;-14.67;-10.75;-217.14;-97.08;7.34;-43.21;27.29;-12.97;18.37;8.14;63.93;5.81;11.27;-202.69;-29.21;110.2;3.08;3.04;-0.07
2;72.2;38.67;6.98;226.36;118.26;-15.01;-11.3;-283.93;-157.44;7.41;393.3;19.04;-6.81;234.38;7.38;123.05;4.3;8.3;-146.64;-22.85;280.18;4.91;7.36;-3.87
2;-109.99;-28.15;6.67;54.26;27.45;-14.5;-9.89;-206.92;-86.09;7.98;-36.31;24.24;-12.98;8.12;17.11;68.81;5.59;11.89;-155.01;-23.37;98.5;-1.8;1.85;-0.05
2;94.96;38.68;7.24;223.65;111.5;-9.65;-10.64;-305.13;-184.55;4.95;404.82;15.93;-7.3;211.02;-10.26;113.65;3.56;5.98;-259.51;-24.75;204.32;4.49;7.65;-4.17
2;-104.44;-30.4;7.88;45.94;31.04;-15.31;-8.28;-242.13;-97.25;13.09;-46.07;33.38;-12.32;9.99;5.01;80.87;5.51;11.94;-246.38;-29.44;97.4;1.5;3.45;-0.38
2;77.59;23.14;8.18;204.91;94.65;-10.25;-13.63;-278.85;-166.03;8.01;378.42;20.03;-7.77;190.51;-7.34;154.25;4.85;7.91;-287.7;-29.92;319.29;4.97;7.01;-3.12
2;-103.45;-23.9;8.47;53.63;30.61;-18.61;-8.71;-210.84;-80.36;5.32;-42.7;22.02;-12.11;18.32;15.02;63.67;4.72;12.03;-153.1;-34.52;119.93;2.86;2.21;-0.01
2;82.03;32.16;8.5;226.27;103.77;-4.77;-11.09;-300.27;-162.4;4.42;403.68;18.49;-7.48;181.01;-13.2;127.32;3.65;5.96;-241.76;-28.61;231.2;8.8;8.52;-3.9
2;-112.27;-33.98;6.67;53.77;28.54;-12.72;-10.63;-222.03;-76.83;6.3;-32.85;26.55;-12.47;11.48;14.28;60.37;5.19;10.58;-171.4;-29.71;97.54;-4.69;1.98;0.24
2;91.8;48;7.87;221.18;116.35;-7.24;-8.24;-301.82;-166.38;4.93;385.34;17.39;-7.37;218.57;6.48;124.69;2.83;6.14;-183.47;-22.99;253.33;5.31;8.51;-4.68
2;-107.19;-23.12;6.49;49.41;28.23;-12.95;-8.64;-226.73;-70.53;8.19;-39.76;28.66;-12.71;14.02;8.21;72.62;4.8;11.65;-192.07;-23.47;99.42;-1.27;3.08;-0.52
2;79.43;34.3;8.05;221.22;114.4;-13.49;-8.54;-259.39;-149.59;7.3;394.88;15.09;-7.14;222.87;-7.67;108.53;3.33;7.32;-184.44;-24.31;236.27;7.61;7.6;-3.97
2;-111.68;-33.7;7.73;52.79;28.68;-14.45;-10.44;-219.33;-89.29;8.09;-38.11;23.58;-13.2;4.42;10.55;72.51;5.71;11.85;-185.04;-28.85;119.93;-0.71;2.09;0.29
2;86.79;42.53;7.19;219.35;109.61;-8.69;-9.95;-269.6;-128.61;3.39;388.55;16.79;-7.12;216.58;-4.93;120.64;3.57;6.22;-202.4;-23.66;258.55;5.02;8.12;-3.87
2;-99.76;-25.04;7.08;46.75;29.89;-12.86;-8.73;-191.19;-74.91;5.96;-38.24;25.81;-12.31;13.35;12.77;58.45;4.56;10.96;-178.63;-23.59;108.59;-2.79;2.89;-0.66
2;74.2;36.69;8.37;227.71;110.04;-9.74;-8.7;-309.61;-177.55;5.67;398.11;16.78;-7.02;199.41;-1.78;118.05;3.69;7.12;-158.5;-26.07;265.95;6.46;7.71;-3.74
2;-114.63;-30.79;7.42;51.55;35.11;-14.74;-9.42;-206.38;-111.58;5.97;-39.8;22.42;-12.73;20.57;2.89;65.8;5.12;11.32;-141.24;-25.4;111.81;-0.89;1.72;-0.26
2;111.04;51.84;7.26;210.78;99.32;1.43;-10.01;-274.96;-135.27;1.92;391.76;18.86;-6.67;197.36;12.43;144.19;3.79;5.48;-224.87;-22.62;270.63;3.18;9.38;-4.55
2;-104.31;-28.62;7;56.95;29.45;-13.08;-9.11;-209.03;-94.35;5.86;-29.98;20.95;-12.75;9.77;12.27;94.21;4.79;10.41;-184;-24.67;145.86;-2.13;3.01;-0.29
2;78.58;39.16;9.13;235.96;102.39;-11.6;-9.82;-278.59;-156.85;4.71;438.27;16.84;-6.9;195.11;-7.65;128.3;3.64;8.42;-299.05;-24.51;241.81;9.37;7.16;-4.39
2;-121.89;-35.92;8.74;61.53;26.99;-15.53;-12.73;-260.85;-89.43;9;-10.53;33.83;-13.37;8.09;-3.27;99.2;5.92;12.66;-295.95;-31.91;128.51;3.32;1.61;0.57
2;112.86;56.21;6.58;214.75;106.28;-7.05;-9.53;-289.31;-151.24;1.59;386.56;15.22;-6.07;206.46;21.84;111.88;2.64;5.5;-196.41;-20.81;224.72;3.55;9.47;-5.19
2;-105.31;-22.69;6.3;60.65;36.85;-13.65;-9.55;-213.89;-79.11;7.23;-38.26;33.22;-12.63;20.56;0.57;90.45;5.6;12.7;-254.03;-23.69;99.62;-2.2;2.58;-0.1
2;86.53;34.45;7.96;231.78;109.31;-10.69;-10.31;-264.33;-134.84;5.49;422.19;16.21;-7.13;221.69;-4.95;120.85;3.42;6.85;-224.54;-23.84;245.87;8.86;8.83;-3.99
2;-114;-39.74;9.46;54.15;31.84;-15.99;-13.19;-216.5;-101.66;8.66;-32.66;22.69;-13.44;12.01;13.86;78.61;5.97;10.95;-226.42;-30.03;122.01;5.2;1.92;0.13
2;86.91;43.59;7.06;221.42;107.92;-13.76;-9.5;-264.55;-120.25;5.71;407.75;16.44;-6.78;217.05;-3.14;130.21;3.28;7.4;-235.11;-20.79;278.71;4.19;8.39;-4.5
2;-103.12;-29.73;8.4;53.58;31.35;-14.92;-10.13;-208.92;-89.26;7.23;-35.72;23.57;-12.82;14.8;9.11;64.34;5.63;10.87;-220.32;-29.54;94.69;2.7;1.72;0.22
2;83.21;43.55;7.22;220.64;102.86;-4.91;-10.72;-296.44;-137.87;3.64;397.68;19.22;-7.02;183.48;6.63;132.47;3.88;6.79;-203.58;-23.41;262.46;2.56;8.6;-4.37
2;-101.08;-21.35;6.44;36.52;31.98;-15.74;-9.84;-171.94;-90.12;5.83;-47.76;17.68;-12.32;28.68;-4.56;48.69;5.23;10.02;-164.89;-23.21;62.56;-0.28;2.07;-0.02
2;76.38;27.91;6.94;208.6;84.7;-1.24;-9;-284.53;-117.94;2.85;394.41;20.09;-7.26;157.94;-0.99;124.91;3.69;6.63;-211.18;-21.22;268.3;4.38;8.34;-3.63
2;-112.41;-31.56;7.92;50.52;32.9;-13.03;-12.33;-206.98;-88.72;7.23;-40.11;20.75;-12.57;16.6;9.78;61.82;5.54;10.7;-178.19;-24.76;114.07;1.72;1.55;0.05
2;100.61;45.65;7.31;203.67;91.84;-1.52;-10.69;-285.33;-140.61;2.63;377.9;19.75;-6.57;181.96;-4.02;135.28;3.66;5.77;-233.98;-22.37;235.12;4.87;9.54;-4.58
2;-104.77;-27.43;6.22;41.96;30.91;-16.57;-11.18;-192.72;-83.46;7.89;-48.31;20.89;-12.98;15.36;5.29;54.74;5.62;11.05;-149.39;-22.99;92.91;-2.03;2.52;0.02
2;76.84;36.01;8;220.26;106.98;-9.13;-11;-283.09;-137.89;6.74;388.54;18.16;-7.16;205.49;4.22;131.87;4.2;6.94;-188.39;-24.66;275.79;4.59;8.25;-3.79
2;-106.82;-31.65;5.46;53;26.91;-13.44;-10.28;-202.2;-78.83;6.21;-44.38;21.59;-12.97;11.74;13.77;57.1;5.29;10.6;-150.5;-21.86;88.85;-2.2;2.1;0.28
2;80.21;43.83;7.6;222.09;114.5;-8.91;-9.8;-268.15;-143.99;6.15;392.31;16.13;-7.21;219.19;-6.87;120.73;3.7;6.35;-273.64;-24.73;213.51;5.7;7.81;-4.62
2;-107.96;-37.05;8.52;56.88;29.4;-14.03;-11.52;-246;-98.4;7.63;-13.56;33.75;-12.94;0.38;16.21;85.15;5.95;12.46;-270.49;-28.98;110.32;2.62;2.35;0.12
2;89.22;40.17;7.58;224.32;110.14;-9.11;-8.94;-285.99;-172.5;3.55;407.91;15.71;-7.05;205.52;-0.96;102.61;3.03;5.9;-111.39;-22.42;224.56;6.91;8.96;-4.4
2;-102.7;-25.01;8.1;49.57;29.55;-12.86;-9.81;-208.78;-86.03;6.74;-39.08;22.01;-12.96;11.65;23.33;70.16;5.12;11.46;-115.83;-25.2;133.77;2.15;2.28;-0.48
2;69.81;40.47;7.99;207.17;112.16;-10.74;-9.32;-286.41;-187.61;7.04;370.22;18.42;-7.71;204.84;-12.03;97.98;3.5;7.75;-158.84;-28.11;211.02;3.5;7.44;-4.33
2;-99.99;-27.27;7.84;55.21;32.25;-17.63;-10.85;-192.87;-91.59;12.48;-33.25;28.47;-12.04;15.91;19.43;80.41;5.86;12.48;-173.14;-28.59;118.72;4.06;2.73;-0.62
2;74.32;36.17;7.23;221.27;108.56;-6.99;-9.88;-279.39;-138.78;4.25;398.09;19.02;-7.19;192.15;0.15;101.32;3.76;6.03;-155;-23.28;204.07;4.4;8.38;-4
2;-104.74;-19.75;7.39;49.45;31.33;-15.71;-9.98;-191.25;-67.57;7.27;-37.54;22.32;-12.35;24.78;4.48;64.38;5.23;11.58;-166.92;-25.39;83.81;0.17;1.81;0.01
2;84.1;46.26;7.86;219.92;117.46;-3.45;-10.18;-276.31;-154.64;1.97;399.62;17.27;-7.23;227.59;-3.25;105.51;3.65;5.87;-144.94;-25.03;246.15;5.58;9.1;-4.82
2;-99.6;-28.47;9.86;51.03;34.39;-16.99;-9.41;-197.23;-93.21;6.79;-26.98;25.12;-12.92;20.13;20.98;74.21;6.03;12.61;-161.64;-30.79;127.58;5.75;1.88;-0.19
2;73.47;34.59;7.64;214.44;103.28;-6.37;-10.59;-256.72;-136.11;4.43;400.93;20.29;-6.92;180.04;-8.75;123.73;4.12;7.27;-201.48;-22.32;262.03;5.43;8.86;-4.39
2;-112.67;-28.67;7.24;48.24;30.6;-12.67;-10.99;-190.87;-84.57;7.29;-41.21;19.77;-12.77;20.18;3.84;58.31;5.45;10.34;-128.04;-25.24;104.76;-2.87;0.91;0.5
2;98.01;52.39;8.4;217.02;114.65;-3.12;-9.89;-256.65;-130.29;1.83;406.98;18.76;-7.13;224.47;8.5;113.06;2.97;5.11;-173.64;-25.14;225.84;8.24;10.05;-4.89
2;-108.62;-30.62;9.85;48.27;31.08;-12.46;-10.9;-212.15;-86.89;6.89;-44.29;19.08;-13.27;11.63;17.97;64.07;5.48;11.08;-160.4;-31.05;132.85;3.96;2.18;-0.29
2;85.11;37.61;7.46;231.44;105.92;-13.63;-10.54;-247.83;-120.91;7.29;428.9;17.44;-6.86;214.89;-7.25;133.35;3.83;7.65;-266.32;-22.87;251.08;5.81;7.94;-4
2;-105.14;-30.54;7.09;40.07;28.5;-12.53;-10.47;-189.13;-84.03;6.38;-49.35;23.67;-13.11;6.29;8.96;67.67;4.99;9.87;-211.21;-24.15;96.58;-1.07;3.2;-0.11
2;75.45;29.36;7.58;227.63;93.26;-12.59;-8.31;-286.9;-116.47;6.42;418.19;16.66;-7.28;184.16;8.68;121.24;4.08;7.5;-195.79;-22.53;286.62;5.5;7.78;-3.11
2;-116.86;-18.54;6.86;39.32;34.64;-14.04;-10.58;-190.97;-91.49;7.61;-56.95;17.67;-12.34;32.32;-18.35;53.72;4.85;10.5;-171.87;-24.33;73.43;-0.98;1.59;-0.06
2;104.96;47.49;7.9;217.03;111.26;-1.21;-9.59;-287.2;-169.15;5.66;390.23;19.06;-7.23;216.24;9.84;134.53;3.83;6.18;-202.9;-25.51;288.15;3.71;8.94;-4.49
2;-102.63;-33.99;7.14;49.57;30.19;-11.08;-9.05;-212.69;-92.29;8.05;-50.1;24.44;-12.75;9.59;22.86;63.27;5.07;10.65;-144.33;-27.43;113.11;0.61;3.33;-0.35
2;69.11;45.04;7.07;210.76;111.29;-11.54;-9.77;-270.38;-139.78;7.66;373.83;15.31;-6.98;207.16;-5.16;108.77;4.29;7.15;-250.59;-21.44;216.74;4.6;7.46;-4.31
2;-103.86;-34.15;7.43;50.3;31.95;-12.17;-11.9;-186.3;-92.15;7.01;-31.34;24.82;-12.67;10.33;1.7;72.06;5.69;10.81;-246;-26.25;81.25;-2.05;2.07;0.45
2;81.84;34.09;7.82;213.67;95.59;-2.33;-9.44;-273.96;-131.77;0.88;386.08;19.21;-7.63;173.83;-2.36;128.83;3.53;5.85;-205.81;-24.2;244.48;6.3;8.63;-3.96
2;-103.62;-34.76;6.58;48.05;28.88;-14.19;-10.62;-186.62;-90.33;6.97;-33.39;22.87;-12.8;3.05;21.89;51.66;5.57;10.93;-156.05;-23.79;83.35;-2.17;2.02;0.11
2;82.29;42.95;7.37;212.77;102.63;-6.44;-10.76;-282.51;-134.87;2.55;376.74;20.34;-6.82;187.31;0.58;131.35;3.74;5.97;-242.41;-23.53;229.29;4.5;8.48;-4.3
2;-113.4;-31.74;7.8;50.45;35.25;-14.37;-13.24;-216.35;-97.7;6.62;-39.82;24.44;-12.69;22.63;1.2;65.4;5.73;11.11;-223.67;-25.55;107.31;-0.24;1.58;0.38
2;97.73;43.39;7.34;218.39;106.48;1.79;-8.83;-277.84;-142.5;0.64;407.47;18;-7.18;208.87;4.84;114.27;2.99;5.08;-190.69;-21.73;248.86;5.97;9.57;-4.49
2;-102.28;-28.12;6.92;46.01;28.91;-14.71;-10.95;-198.96;-71.83;7.91;-42.58;20.26;-12.9;12.5;12.35;65.16;5.35;10.7;-176.25;-22.59;90.78;-2;2.32;0.12
2;78.33;45.33;6.86;218.66;112.23;-13.31;-9.89;-303.32;-136.96;5.59;374.49;16.96;-7.12;224.7;1.29;134.52;3.92;7.09;-216.44;-23.19;276.26;3.15;7.71;-4.33
2;-104.49;-28.58;6.61;45.79;30.98;-13.92;-8.93;-206.94;-75.26;8.12;-51.57;25.97;-12.72;16.55;5.19;71.59;4.93;11.31;-221.6;-22.99;85.64;-1.44;3.09;-0.25
2;79.92;33.44;7.31;227.01;102.2;-12.07;-8.58;-261.66;-113.86;6.35;411.97;17.77;-6.93;192.49;-4.54;129.84;3.68;6.93;-250.71;-24;279.59;6.03;7.91;-3.89
2;-109.41;-29.09;8.31;50.89;35.72;-15.51;-12.87;-213.17;-96.83;8.54;-37.88;24.86;-12.64;24.04;-2.68;72.49;5.78;11.58;-236.36;-27.05;103.7;0.5;1.7;0.07
2;103.24;49.2;7.72;225.59;121.43;-3.93;-11.31;-257.46;-113.61;1.78;422.01;21.36;-7.33;250.83;20.66;110.62;3.77;6.22;-153.6;-26.96;252.22;2.96;9.55;-4.44
2;-105.13;-27.84;8.5;51.39;39.88;-13.78;-10.56;-194.65;-100.65;6.68;-37;23.72;-13.22;30;17.15;82.71;5.55;11.27;-230.77;-28.29;103.51;1.68;2.99;-0.83
2;69.02;42.31;8.15;220.89;107.3;-12.77;-10.21;-257.26;-137.03;6.88;410.73;19.26;-7.14;191.91;-11.38;112.49;4.24;7.76;-182.54;-23.67;236.01;8.8;7.8;-4.24
2;-107.76;-27.73;9.64;51.13;31.64;-16.69;-9.65;-197.12;-90.08;10.06;-33.37;26.18;-11.96;14.52;10.73;76.84;5.49;11.82;-187.44;-30.79;108.94;8.3;1.11;-0.11
2;101.55;44.01;7.65;208.19;96.83;-0.35;-8.92;-261.06;-121.25;-0.86;388.92;16.68;-6.99;197.74;-9.77;125.82;2.87;5.03;-324.47;-24.27;220.76;5.84;9.23;-4.72
2;-107.51;-28.75;10.02;58.17;41.49;-16.82;-13.04;-263.3;-110.4;9.36;-39.53;32.87;-13.53;25.84;15.75;86.23;6.88;13.6;-295.38;-32.11;126.9;4.21;2.32;-0.09
2;78.48;33.76;6.38;211.45;115.78;-11.61;-12.63;-261.47;-120.24;7.96;374.43;19.82;-7.18;244.97;21.07;119.41;4.82;7.34;-149.66;-22.48;201.53;1.85;8.41;-4.42
2;-107.08;-5.17;6.84;40.73;36.45;-17.58;-10.42;-182.26;-89.85;7.29;-48.95;18.95;-13.06;41.48;-3.07;70.72;5.36;11.36;-164.47;-25.34;68.55;-1.04;1.75;-0.34
2;72.71;38.14;6.81;220.02;98.31;-11.94;-9.02;-235.81;-90.73;6.23;407.98;19.73;-6.63;198.91;-19.2;129.54;3.48;7.12;-325.91;-21.62;237.3;5.47;7.83;-4.05
2;-112.73;-41.2;9.32;58;39.5;-14.71;-13.18;-206.89;-118.31;8.67;-32.21;28.23;-13.15;10.01;15.55;82.03;6.75;12.31;-313.53;-29.93;115.28;4.14;1.84;0.4
2;96.37;49.18;7.28;220.42;113.89;-1.68;-10.56;-258.1;-130.26;2.55;406.4;18.09;-6.43;214.9;9.5;126.1;3.8;5.4;-150.85;-21.29;269.49;5.67;9.81;-4.93
2;-102.93;-23.91;7.68;47.53;35.25;-14.85;-9.4;-193.03;-81.8;8.16;-40.57;25.81;-13.1;21.07;7.24;65.59;5.44;11.68;-180.09;-24.81;74.55;-0.85;1.82;-0.11
2;82.99;43.54;7.36;230.72;112.05;-11.13;-9.4;-263.5;-126.94;6.47;412.55;17.45;-6.87;230.35;-2.16;127.36;3.67;7.17;-230.52;-24.34;268.82;6.69;8.09;-4.38
2;-106.51;-34.93;8.92;52.42;33.41;-12.93;-9.43;-213.63;-107.27;6.65;-36.81;26.44;-13.3;8.46;13.68;82.12;5.41;11.78;-247.02;-30.3;126.88;3.77;2.34;-0.3
2;79.6;48.03;7.16;225.75;114.05;-12.5;-10.04;-270.8;-140.52;6.81;394.71;15.71;-6.87;217.89;3.57;116.16;3.56;7.12;-193.75;-23.46;252.7;5.35;8.24;-4.67
2;-101.46;-31.24;8.94;52.97;34.91;-14.96;-10.25;-212.68;-99.85;6.37;-24.38;29.6;-12.99;9.69;3.28;90.74;5.47;12.12;-238.73;-29.08;93.39;4.99;2.48;-0.3
2;75.61;35.89;7.86;224.02;113.26;-10.97;-10.01;-260.35;-143.25;6.96;399.97;17.61;-7.27;220.6;4.8;111.88;3.91;7.54;-221.24;-24.37;219.36;7.75;7.53;-4.45
2;-106.86;-29.09;7.69;55.51;29.54;-16.29;-10.8;-217.05;-86.81;8.06;-25.81;32.61;-12.92;6.83;14.69;89;5.52;13.1;-248.52;-29.5;122.59;0.62;2.18;0.08
2;96.7;35;8.81;234.11;96.9;-11.87;-11.56;-249.38;-120.29;3.13;423.61;19.3;-6.57;191.72;0.83;157.33;3.61;7.09;-371.38;-25.92;287.12;7.97;7.99;-4.29
2;-100.77;-14.87;9.61;45.61;35.21;-18.39;-9.4;-206.4;-97.34;5.85;-41.19;26.84;-12.97;31.25;12.7;91.53;4.85;12.26;-332.5;-31.16;117.11;1.15;2.89;-0.58
2;70.24;31.01;7.77;219.88;98.2;-8.48;-8.39;-301.91;-127.84;5.97;400.41;17.77;-7.17;178.02;7.27;119.1;3.37;5.84;-177.05;-27.1;253.12;5.8;8.47;-3.68
2;-109.62;-17.75;6.67;49.84;36.08;-16;-9.32;-187.1;-81.46;6.58;-40.94;29.85;-12.21;26.67;-18.56;76.92;5.43;11.73;-237.95;-24.47;72.33;-2.3;1.74;-0.1
2;107.41;44.37;8.14;219.47;102.66;0.78;-9.87;-275.17;-148.52;-0.07;408.01;16.03;-6.69;202.24;11.48;118.22;3.01;4.88;-191.69;-26.29;248.05;6.35;9.65;-4.86
2;-106.15;-30.01;6.88;54.99;31.85;-12.6;-11.09;-201.99;-80.34;8;-27.4;25.89;-13.05;10.13;11.54;73.05;5.71;11.19;-188.34;-24.28;95.79;-2.21;2.22;-0.05
2;83.43;36.17;6.87;223.39;102.56;-12.11;-9.84;-260.46;-137.71;6.4;391.8;16.04;-6.91;197.64;0.87;134.71;3.84;6.51;-204.58;-21.76;272.81;5.2;7.87;-3.96
