label;gyro_z_avg;gyro_x_avg;acc_y_stdev;gyro_z_stdev;gyro_x_stdev;acc_x_min;acc_z_min;gyro_z_min;gyro_x_min;acc_z_max;gyro_z_max;acc_x_max;acc_y_avg;gyro_x_max;gyro_y_avg;gyro_y_stdev;acc_z_stdev;acc_x_stdev;gyro_y_min;acc_y_min;gyro_y_max;acc_y_max;acc_x_avg;acc_z_avg
0;-116.36;-23.7;5.09;57.3;17.98;-13.64;-12.07;-233.9;-52.65;14.11;-25.23;18.64;-13.06;37.14;-19.45;92.31;5.29;7.59;-242.52;-26.95;65.12;-4.77;0.55;-0.24
0;-112.89;-23.64;5.2;63.7;22.35;-12.7;-11.52;-242.13;-65.21;10.79;49.1;22.58;-12.7;40.18;-15.25;103.93;4.96;7.99;-250.45;-27.23;131.29;-4.53;1.05;-0.58
0;-119.44;-16.55;5.12;56.67;25.2;-10.75;-13.5;-242.22;-49.05;13.16;-35.23;16.99;-13.24;63.67;-21.7;114.64;5.39;6.92;-304.06;-28.32;106;-6.68;0.43;-0.12
0;-117.69;-23.43;5.08;62.7;21.85;-14.26;-12.56;-242.93;-53;13.65;35.92;20.55;-13.15;51.69;-20.88;102.22;5.62;8.18;-257.37;-27.5;93.34;-4.88;0.56;-0.33
0;-112.79;-22.05;5.56;69.64;32.25;-16.87;-13.66;-240.62;-58.98;10.75;98.72;23.86;-12.74;82.87;-13.01;104.72;5.64;8.69;-244.85;-28.09;94.19;-1.99;1.15;-0.62
0;-115.94;-19.12;5.38;61.53;24.27;-15;-14.7;-246.32;-46.35;9.24;30.95;17.21;-13.03;67.42;-15.28;94.72;5.23;7.69;-275.65;-28.71;53.96;-2.68;0.83;-0.55
0;-116.26;-26.9;5.27;64.09;20.17;-14.88;-12.15;-239.55;-61.56;12;39.5;22.29;-13.11;42.41;-17.03;96.86;5.18;8.55;-247.04;-27.14;102.97;-2.94;0.78;-0.38
0;-115.82;-25.95;5.19;59.51;17.19;-13.3;-10.13;-236.1;-56.84;13.79;-19.52;20.18;-13.06;16.22;-14.9;100.02;4.91;7.76;-258.69;-25.87;116.33;-2.73;0.77;-0.23
0;-115.75;-18.64;5.43;64.02;24.65;-11.74;-13.58;-241.13;-55.56;11.74;45.16;20.65;-13.13;57.8;-18.63;102.38;5.25;7.77;-249.56;-27.26;102.03;-2.01;1.14;-0.38
0;-31.54;-15.34;4.28;152.16;37.12;-11.59;-8.32;-196.2;-58.51;12.35;358.81;19.24;-10.94;117.7;11.82;83.41;4.2;7.52;-241.33;-24.34;141.57;-1.93;3.85;-0.34
0;-118.12;-26.54;4.69;58.17;19.99;-12.41;-12.13;-237.42;-64.9;13.26;-30.76;18.52;-13.15;37.66;-14.12;96.16;5.07;6.77;-257.66;-25.36;76.69;-6.45;0.47;0.15
0;-121.31;-21.63;5.28;55.55;20.6;-10.96;-12.62;-238.11;-66.19;12.62;-59.25;22.73;-13.21;45.2;-16.6;107.49;5.45;7.73;-265.02;-29.39;130.71;-5.15;0.43;0.01
0;-116.87;-27.95;5.47;63.87;21.08;-13.36;-10.83;-242.42;-65.12;11.79;38.18;25.77;-12.89;33.54;-14.55;102.47;4.97;8.71;-283.96;-26.89;135.11;-3.18;1.08;-0.36
0;-120.17;-24.76;5.1;55.33;14.67;-12.8;-10.59;-228.66;-55.73;12.04;-56.84;22.47;-13.28;18.96;-20.14;103.94;4.52;7.64;-279.61;-26.85;112.91;-4.25;0.41;-0.01
0;-121.85;-26.37;5.21;55.26;15.35;-15.06;-10.3;-231.68;-57.34;14.98;-31.95;19.16;-13.51;17.91;-18.45;100.1;5.11;7.51;-275.1;-27.73;101.16;-6.25;0.13;0.3
0;-116.04;-20.94;5.28;66.32;23.18;-16.37;-12.12;-243.59;-60.52;11.13;80.75;21.46;-12.79;51.2;-15.92;104.18;4.92;8.51;-272.28;-26.66;111.57;-3.45;1.12;-0.32
0;-118.8;-23.31;5.76;66.13;21.92;-15.13;-12.72;-241.4;-52.53;12.65;66.23;20.06;-13.46;58.79;-21.63;101.01;5.18;8.33;-279.31;-30.03;96.18;-4.25;1.02;-0.09
0;-114.31;-23.49;6.22;76.74;33.79;-14.64;-14.86;-246.42;-63.51;13.35;127.02;25.73;-12.93;80.23;-12.54;105.13;5.56;9.19;-267.7;-30.13;96.33;-0.76;1.34;-0.31
0;-113.42;-24.64;5.71;75.33;20.8;-15.77;-11.59;-251.47;-61.4;13.02;117.21;22.68;-12.99;41.96;-13.22;105.7;5.23;8.63;-262.86;-26.79;106.69;-1.95;1.17;-0.3
0;-114.55;-23.23;5.77;78.97;28.01;-13.66;-13.06;-255.52;-57.52;14.31;133.49;20.58;-13.13;66.23;-12.59;98.97;5.73;8.27;-231.6;-27.33;97.01;-1.24;1.22;-0.25
0;-119.24;-20.98;5.97;66.05;27.39;-14.13;-11.33;-246.05;-51.62;12.44;62.38;20.83;-13.46;68.56;-18.28;102.74;4.97;8.63;-276.27;-28.65;82.89;-3.88;0.56;-0.09
0;-106.8;-26.47;5.93;86.75;32.26;-14.26;-13.98;-252.99;-79.17;15.12;169.9;27.06;-12.67;68.59;-8.25;122.44;5.88;9.82;-328.62;-25.92;121.51;0.67;1.43;-0.33
0;-121.07;-21.64;5.24;64.25;22.37;-14.01;-11.74;-247.23;-59.55;12.35;61.91;19.25;-13.34;44.78;-14.76;105.71;5.11;8.09;-280.98;-27.84;96.87;-5.86;0.98;-0.12
0;-117.53;-25.3;5.83;70.39;26.3;-14.26;-12.49;-247.19;-63.75;15.02;94.56;22.49;-13.31;64.03;-16.74;100.99;5.51;8.76;-254.73;-28.19;96.76;-4.1;0.79;0.07
0;-117.65;-24.49;5.77;69.1;24.42;-12.86;-12.4;-248.86;-56.32;14.28;84.01;21.35;-13.4;53.26;-16.6;104.83;5.5;8.4;-269.13;-28.01;125.65;-4.51;0.94;0
0;-115.89;-22.27;5.69;71.07;19;-13.77;-11.96;-252.15;-51.11;14.78;90.11;19.95;-13.13;38.56;-15.95;100.21;5.39;8.35;-252.7;-27.89;104.08;-3.71;0.97;-0.23
0;-112.06;-26.54;5.51;75.98;26.05;-14.59;-11.7;-247.44;-60.59;12.2;121.59;18.53;-12.84;58.6;-8.07;96.69;4.98;7.95;-238.84;-27.53;111.29;-2.55;1.28;-0.02
0;-118.76;-23.02;5.65;63.61;23.7;-12.57;-13.23;-243.52;-53.03;13.34;53.35;21.49;-13.38;52.24;-18.94;107.79;5.48;8.58;-296.15;-27.77;95.93;-2.99;1.02;-0.28
0;-115.51;-25.29;6.1;75.38;23.88;-15.26;-13.3;-253.71;-75.93;14.72;116.53;26.95;-13.22;43.72;-12.9;123.89;5.44;10.15;-317.2;-28.69;134.48;-2.14;1.16;-0.33
0;-124.07;-25.89;5.36;62.92;21.38;-13.15;-11.79;-252.29;-65.4;15.83;-10.57;23.87;-13.63;33.53;-24.38;104.94;5.37;8.65;-290;-27.63;121.46;-5.17;0.66;-0.01
0;-121.85;-23.59;5.68;63.33;19.6;-16.04;-10.46;-238.15;-66.12;13.7;25;26.95;-13.42;34.53;-16.04;108.31;5.17;9.58;-297.97;-27.8;141.41;-3.71;0.58;-0.22
0;-113.39;-20.73;5.92;79.14;29.79;-13.64;-14.54;-256.36;-60.76;13.53;134.74;28.29;-13.02;76.29;-13.93;115.98;5.71;9.89;-292.26;-27.39;139.14;-1.47;1.14;-0.28
0;-113.47;-25.01;6.01;78.85;24.75;-13.33;-12.03;-249.39;-71.15;13.99;135.49;25.61;-13.07;50.69;-15.79;120.26;5.42;9.48;-302.84;-28.22;140.57;-1.61;1.14;-0.16
0;-32.88;-12.54;4.26;159.36;34.84;-9.11;-7.85;-209.14;-67.74;13.55;374.83;19.12;-11.24;110.51;16.9;82.73;4.09;7.32;-207.92;-25.5;148.97;-2.5;3.7;-0.06
0;-121.28;-21.78;5.77;65.39;22.31;-13.63;-13.34;-244.36;-57.94;14.25;56.8;22.68;-13.6;50.36;-20.23;120.91;5.57;9.38;-319.78;-29.83;130.43;-5.58;0.82;-0.4
0;-122.98;-26.88;5.85;63.41;22.3;-14.58;-13.46;-249.63;-60.7;14.71;20.14;24.66;-13.72;47.37;-20.08;115.02;5.6;9.65;-293.22;-28.13;132.73;-1.24;0.72;-0.29
0;-115.63;-22.54;6.01;73.29;27.25;-13.72;-14.09;-247.69;-57.49;11.25;109.13;25.35;-13.04;63.16;-13.96;108.53;5.41;9.33;-289.46;-29.14;120.45;-1.16;1.52;-0.37
0;-113.29;-21.86;6.27;77.21;22.22;-12.92;-10.83;-252.58;-49.39;13.57;117.21;20.58;-12.98;53.56;-11.5;98.68;5.14;8.27;-256.52;-28.95;113.83;-2.97;1.47;-0.1
0;-115.65;-21.8;5.68;69.56;21.52;-14.01;-11.04;-242.34;-54.52;11.96;93.11;24.15;-13.2;47.53;-17.61;117.62;5.02;9.19;-298.79;-27.93;142.11;-2.68;1.46;-0.28
0;-112.74;-25.48;6.03;78.8;22.44;-13.7;-10;-253.77;-57.46;11.94;126.08;25.4;-13.19;48.72;-12.27;109.06;4.66;9.14;-278.41;-28.96;118.49;-2.84;1.3;-0.08
0;-115.55;-18.13;5.68;70.46;26.91;-11.91;-11.9;-245.56;-61.23;13.3;94.93;21.86;-13.31;63.37;-14.25;124.39;5.31;9.03;-315.92;-29.19;147.94;-4.16;1.24;-0.33
0;-116.77;-23.71;5.75;71.25;19.93;-13.13;-11.22;-243.43;-54.42;13.61;97.83;23.02;-13.35;40.91;-11.44;108.12;5.04;8.59;-260.45;-27.46;140.08;-2.01;1.21;-0.07
0;-109.78;-19.52;6.45;81.02;29.02;-13.87;-13.15;-248.14;-62.93;11.24;138.02;28.57;-12.63;67.86;-13.14;107.05;5.15;9.78;-286.33;-29.3;102.24;-0.73;1.83;-0.48
0;-121.47;-22.89;5.39;64.43;17.9;-13.19;-11.8;-249.7;-57.18;13.37;28.19;20.53;-13.62;30.53;-18.87;105.27;4.94;8.5;-286.2;-26.99;96.64;-5.09;0.54;-0.21
0;-117.6;-22.67;5.61;64.6;21.1;-12.56;-12.11;-240.3;-55.38;15.28;40.66;20.07;-13.43;36.84;-19.14;112.24;5.5;8.47;-303.25;-28.7;98.45;-3.03;1.07;-0.31
0;-116.07;-20.5;5.88;72.76;30.77;-12.17;-14.97;-249.72;-66.11;13.66;96.77;25.64;-13.3;85.53;-13.49;112.88;5.59;9.28;-285.49;-28.59;115.27;-2.91;1.33;-0.5
0;-113.74;-19.95;5.99;76.94;24.08;-11.34;-11.91;-251.16;-53.14;10.43;117.09;25.78;-12.73;60.75;-8.42;106.72;4.99;9.18;-280.39;-28.57;121.91;-1.41;1.19;-0.54
0;-118.18;-25.52;5.39;67.34;18.7;-11.69;-11.35;-253.51;-60.53;12.29;36.63;22.24;-13.4;21.92;-13.86;114.21;5.11;8.5;-285.75;-28.3;122.09;-6.44;1.11;-0.22
0;-123.98;-21.72;6.08;63.59;19.21;-15.56;-13.05;-250.57;-54.78;17.49;-39.34;25.27;-13.65;34.49;-26.57;117.64;6.01;9.2;-332.32;-28.98;113.37;0.19;0.48;-0.1
0;-115;-25.16;6.44;83.19;28.13;-13.81;-14.52;-260.99;-70.65;14.36;140.43;25.43;-13.06;58.99;-12.38;116.65;6.08;9.95;-293.75;-28.61;134.41;0.15;1.24;-0.34
0;-122.81;-22.93;5.86;64.75;21.35;-13.19;-12.03;-250.5;-62.37;13.58;38.46;19.47;-13.62;43.62;-22.72;108.7;5.45;8.78;-307.63;-29.55;89.37;-2.22;0.9;-0.19
0;-111.82;-20.38;6.14;80.87;30.85;-14.23;-14.43;-257.62;-61.07;12.53;132.53;29.26;-13;75.82;-7.92;119.88;5.84;10.3;-303.03;-29.46;122.11;-0.52;1.88;-0.73
0;-114.4;-21.93;5.74;81.21;29.09;-15.63;-13.39;-254.95;-64.76;15.69;131.38;23.67;-13.14;72.14;-13.95;119.73;5.91;9.85;-289.77;-27.49;132.46;-1.77;1.15;-0.31
0;-117.07;-25.39;5.95;75.53;24.78;-15.39;-13.75;-259.03;-71.53;12.81;109.72;31.18;-13.33;56.92;-16.22;128.12;5.68;10.86;-331.4;-28.04;165.13;-2.56;1.33;-0.34
0;-113.68;-22.03;6.17;84.9;28.83;-15.8;-12.61;-253.73;-57.23;13.9;142.84;24.26;-13.06;69.29;-11.97;104.99;5.51;9.45;-266.87;-28.55;92.79;-0.74;1.26;-0.31
0;-115.36;-15.61;6.57;83.62;33.82;-12.92;-14.65;-254.65;-59.87;13.05;136.98;21.11;-13.12;86.13;-15.41;98.56;5.52;9.05;-269.59;-28.94;79.03;0.35;1.32;-0.21
0;-121.69;-18.94;6.35;74.98;28.01;-15.39;-12.4;-257.38;-59.38;12.87;99.98;24.93;-13.6;77.94;-17.78;107.29;5.15;9.86;-292.04;-29.25;101.97;-0.29;0.75;-0.4
0;-112.79;-17.69;6.16;83.07;27.45;-15.42;-11.56;-257.08;-49.43;12.11;135.52;23.38;-12.81;70.78;-11.68;100.36;4.92;9.28;-278.94;-28.95;87.41;-0.53;1.31;-0.4
0;-108.54;-22.29;6.35;87.37;28.02;-13.21;-12.77;-261.2;-52.07;11.78;151.64;25.11;-12.83;66.88;-8.34;107.54;5.07;9.35;-288.91;-28.62;136.93;-0.14;1.48;-0.35
0;-111.35;-20;6.31;88.48;26.87;-13.54;-12.52;-265.14;-51.56;13.36;155.64;21.61;-13.03;62.58;-8.42;104.13;4.95;8.84;-265.08;-29.54;131.66;0.27;1.35;-0.3
0;-116.27;-24.05;6.09;78.78;21.71;-15.2;-12.85;-250.83;-58.76;14.41;119.92;23.63;-13.34;48.53;-9.72;112.44;5.33;9.21;-270.49;-28.4;148.7;-1.9;1.25;-0.09
0;-113.17;-22.61;6.38;88.15;25.17;-15.58;-12.05;-259.56;-70.64;17.01;160.64;23.75;-13.08;50.74;-12.65;113.38;5.93;9.52;-272.09;-29.5;125.45;1.4;1.2;-0.01
0;-113.06;-21.63;6.56;88.89;31.23;-13.82;-13.16;-261.04;-63.51;13.4;159.35;22.19;-12.77;65.74;-7.91;116.72;5.04;9.59;-302.76;-31.39;121.99;-0.15;1.77;-0.4
0;-122.19;-19.55;5.62;73.52;30.53;-13.55;-13.35;-262.46;-61.59;13.45;98.55;19.46;-13.72;91.91;-20.6;101.97;5.14;8.67;-281.66;-28.39;88.44;-5.12;0.82;-0.24
0;-16.56;-10.56;5.64;179.68;52.78;-10.62;-7.52;-202.44;-78.55;14.16;402.19;20.68;-10.77;151.56;25.33;87.46;4.41;8.24;-248.67;-27.7;192.24;1;4.51;-0.63
0;-117.91;-24.54;5.97;75.86;19.15;-12.07;-10.81;-257.89;-51.69;12.36;105.55;22.52;-13.37;40.59;-9.7;98.51;4.78;8.46;-239.41;-28.52;81.1;-2.08;1.22;-0.13
0;-116.26;-20.38;6.27;77.95;26.83;-12.65;-12.13;-255.55;-60.05;15.25;117.48;20.08;-13.45;66.74;-11.64;103.44;5.44;8.62;-277.9;-30.63;127.67;-1.81;1.6;-0.21
0;-118.05;-26.66;6.14;77.58;22.24;-14.04;-12.05;-261.32;-64;12.84;115.7;25.93;-13.34;45.72;-17.68;114.67;5.27;10.17;-308.6;-28.94;167.08;-1.8;1.43;-0.2
0;-114.77;-27.59;6.43;74.56;19.01;-14.57;-9.77;-245.59;-66.5;16.51;101.36;23.33;-13.21;24.84;-15.81;114.32;5.37;9.59;-271.51;-29.55;157.36;-1.83;1.39;-0.09
0;-113.53;-25;6.18;85.75;27.07;-13.79;-13.35;-254.16;-77.26;10.2;158.87;24.12;-13.26;51.36;-6.12;121.41;5.04;9.71;-287.49;-28.99;176.32;0.35;1.48;-0.4
0;-115.68;-20.4;6.46;79.58;27.97;-13.68;-11.03;-254.85;-52.81;13.13;127.69;26.37;-13.19;72.09;-21.18;118.55;5.03;9.84;-317.68;-30.46;131.37;-2.13;1.36;-0.32
0;-113.63;-24.86;7.05;85.19;23.5;-15.52;-10.76;-255.25;-56.95;14.13;143.52;27.73;-13.1;42.58;-13.78;117.92;5.19;10.27;-286.41;-30.23;141.88;-0.27;1.69;-0.25
0;-109.71;-15.03;7.24;95.78;34.27;-14.03;-14.78;-263.59;-55.13;12.22;173.64;28.75;-12.89;68.81;-7.85;109.87;5.46;10.08;-299.15;-31.55;96.25;-0.44;1.52;-0.55
0;-110.97;-20.11;6.95;98.97;38.11;-13.1;-14.46;-271.74;-66.59;11.84;189.96;20.49;-13.1;73.91;-7.3;115.98;5.55;9.28;-282.05;-29.99;122.17;1.43;1.28;-0.45
0;-93.81;-14.78;7.66;126.21;36.46;-15.79;-13.24;-281.69;-59.75;11.76;289.64;28.9;-12.02;67.28;-7.96;111.11;5.13;10.89;-303.01;-30.65;122.21;3.68;1.66;-0.49
0;-112.76;-16.33;6.41;87.52;29.7;-15.87;-13.79;-266.49;-57.05;14.69;153.09;23.64;-13.09;70.12;-11.12;109.95;5.18;9.86;-307.25;-28.57;102.03;1.28;1.37;-0.56
0;-117.7;-22.23;6.21;82.39;35.44;-14.88;-12.67;-259.05;-67.76;13.1;127.65;20.29;-13.5;84.8;-10;110.08;5.51;9.5;-254.52;-27.74;120.36;1.1;1.29;-0.31
0;-104.95;-21.59;7.03;105.94;32.04;-13.8;-12.63;-272;-72.32;11.32;205.18;28.19;-12.75;56.53;-6.16;121.96;5.13;10.51;-289.59;-30.39;155.04;1.83;1.4;-0.26
0;-115.56;-18.33;7.25;89.03;34.41;-13.76;-15.12;-266.54;-54.71;15.9;149.51;22.6;-13.27;72.02;-10.85;123.13;6.25;9.83;-330.58;-31.64;156.25;2.47;1.67;-0.25
0;-99.15;-22.85;7.52;115.72;32.16;-15.03;-12.08;-271.47;-64.15;11.37;260.76;28.19;-12.47;50.94;-9.19;118.46;4.77;10.63;-287.4;-30.46;113.03;3.67;1.78;-0.22
0;-110.46;-16.27;6.69;95.16;32.69;-13.72;-12.24;-258.47;-60.03;14.54;168.1;18.95;-13.08;72.2;-9.48;111.96;5.42;9.04;-289.72;-29.8;110.99;-1.4;1.44;-0.38
0;-109.68;-24.23;7.58;96.07;37.61;-13.27;-13.76;-275.77;-69.7;17.06;178.95;27.19;-13.12;74.99;-10.75;145;6.33;10.92;-354.34;-32.65;197.4;2.69;1.74;-0.4
0;-105.39;-13.97;7.32;104.62;38.69;-16.03;-14.52;-272.79;-62.79;14.82;214.6;28.41;-12.82;82.92;-9.21;117.88;5.73;10.38;-288.91;-31.09;148.07;2.3;1.36;-0.61
0;-105.43;-13.69;7.36;107.64;41.28;-16.49;-14.41;-275.53;-57.07;13.52;218.95;26.62;-12.81;91.22;-9.83;127.07;5.68;10.77;-312.15;-30.58;166.69;3.12;1.6;-0.45
0;-60.13;-29.02;6;179.96;38.9;-14.44;-12.09;-288.61;-70.17;8.56;379.18;23.3;-13.15;90.34;13.77;106.52;4.7;9.82;-275.97;-29.99;151.26;-0.41;1.79;-0.1
0;-103.07;-20.28;7.29;106.66;32.3;-12.64;-13.02;-272.21;-55.34;12.33;220.1;18.89;-12.67;59.85;-7.81;107.17;5.22;9.02;-285.71;-29.3;128.17;1.47;1.4;-0.21
0;-104.36;-15.44;8.01;106.74;35.56;-14.53;-13.82;-271.4;-48.33;14.71;211.69;24.58;-12.63;72.4;-9.24;111.79;5.52;9.66;-288.28;-30.96;138.18;2.71;1.55;-0.21
0;-100.06;-18.17;7.91;113.68;37.19;-16.22;-15.2;-275.25;-65.79;13.68;240.76;25.97;-12.43;74.33;-7.88;123.44;5.87;10.04;-298.49;-30.33;123.23;3.43;1.46;-0.47
0;-105.65;-13.47;7.93;110.52;46.45;-15.54;-15.87;-287.21;-63.9;12.24;231.01;26.44;-13.07;107.1;-12.74;118.47;5.61;10.6;-312.77;-29.7;115.14;5.84;1.48;-0.4
0;-108.4;-17.27;7.65;104.58;37.91;-14.32;-12.92;-277.59;-64.75;13.19;199.73;25.96;-12.86;81.59;-14.02;102.06;5.34;9.71;-258.71;-29.91;110.81;2.68;1.14;-0.26
0;-104.42;-12.42;7.74;110.39;42.65;-16.36;-13.84;-276.59;-52.73;9.56;222.89;25.17;-12.62;97.79;-6.12;98.54;5.14;9.84;-268.04;-30.03;77.46;2.38;1.59;-0.63
0;-103.02;-15.88;7.88;110.14;37.56;-16;-14.56;-273.43;-65.94;13.93;235.74;19.93;-12.71;72.17;-4.9;137.91;5.66;9.92;-358.14;-31.39;165.65;3.32;1.52;-0.49
0;-108.08;-15.09;7.14;104.98;47.28;-15.53;-14.49;-277.58;-65.66;13.06;199.54;26.6;-12.97;113.28;-18.87;112.5;5.63;10.27;-283.01;-27.56;111.29;2.3;1.46;-0.41
0;-51.43;-22.55;7.32;187.25;49.65;-14.55;-10.19;-274.11;-77.36;11.58;393.65;29.86;-12.38;140.04;27.66;91.21;5.36;11.27;-272.49;-29.61;160.9;4.03;2.3;-0.38
0;-99.58;-11.68;8.25;122.1;41.17;-16.61;-14.08;-288.51;-63.17;12.07;265.1;32.22;-12.47;92.45;-11.9;129.25;5.29;11.39;-353.25;-30.95;144.4;5.6;1.5;-0.56
0;-104.7;-14.76;7.45;108.26;32.92;-17.09;-12.87;-272.19;-63.29;11.95;220.22;22.23;-12.77;70.24;-7.39;118.07;5.24;9.62;-307.49;-30.37;160.96;2.56;1.29;-0.49
0;-93.41;-11.26;8.7;130.93;41.03;-17.44;-12.95;-276.05;-61.88;8.56;295.3;30.32;-12.16;81.98;-5.03;126.53;4.79;11.27;-322.77;-30.82;156.49;5.16;1.51;-0.5
0;-108.97;-19.02;7.51;106.04;43.58;-15.14;-14.06;-273.21;-66.78;12.92;208.27;23.61;-13.1;99.73;-12.16;109.81;5.36;9.92;-289.25;-30.05;98.56;4.3;1.17;-0.22
0;-105.92;-18.2;7.59;103.68;35.15;-14.37;-13.29;-271.35;-62.09;12.05;197.66;28.18;-12.76;71.9;-7.45;131.64;5.12;10.62;-331.4;-30.41;191.14;2.56;1.57;-0.41
0;-100.23;-17.13;7.33;111.56;37.4;-14.47;-12.52;-265.83;-66.76;10.94;230.37;23.5;-12.59;79.9;-4.27;126.65;5.11;9.66;-320.56;-31.58;190.27;3.26;1.38;-0.36
0;-95.4;-15.05;8.41;127.89;45.29;-15.35;-15.71;-296.22;-69.43;9.02;271.9;27.64;-12;94.24;-8.11;126.78;5.43;10.94;-316.22;-28.78;123.82;6.91;1.79;-0.74
0;-52.58;-19.06;5.67;178.55;37.68;-14.78;-10.96;-272.93;-62.14;9.39;376.06;24.39;-12.46;97.09;19.25;88.73;4.67;9.84;-250.8;-31.36;155.62;0.01;2.15;0.02
0;-117.62;-22.3;6.9;88;27.78;-15.33;-13.85;-268.38;-60.93;12.29;138.15;25.59;-13.35;67.15;-14.89;107.03;5.32;9.71;-276.17;-29.2;144.73;-0.22;1.23;-0.11
0;-103.4;-19.92;7.62;110.32;37.92;-13.56;-13.6;-276.48;-69.45;11.4;227.63;27.44;-12.61;79.94;-11.33;122.25;5.18;10.5;-295.96;-31.73;137.47;3.42;1.54;-0.31
0;-105.72;-16.7;7.55;105.27;37.58;-14.55;-11.58;-262.7;-62.37;9.2;214.37;27.57;-12.89;80.56;-8.31;117.19;4.39;10.22;-310.87;-30.91;117.86;3;1.62;-0.46
0;-94.85;-15.09;8.42;127.05;34.46;-14.11;-12.91;-276.84;-61.9;9.17;287.22;27.84;-12.36;61.86;-3.84;122.44;4.81;10.2;-321.3;-30.81;151.6;4.5;1.32;-0.5
0;-104.68;-11.33;7.57;117.86;45.36;-15.17;-14.01;-278.92;-61.09;10.7;257.47;24.75;-12.77;103.02;-13.07;110.78;5.09;9.86;-297.61;-30.59;97.42;2.89;0.95;-0.54
0;-115.47;-17.57;7.09;98.39;29.21;-14.09;-14.07;-278.26;-64.74;10.13;177.64;28.06;-13.36;59.94;-13.52;111.13;5.1;10.3;-274.85;-29.2;111.49;1.55;1;-0.16
0;-101.15;-10.07;7.85;122.57;45.04;-15.71;-16.16;-290.31;-63.89;13.59;265.03;20.46;-12.6;103.93;-7.02;99.69;5.42;9.61;-270.5;-29.96;90.75;5;1;-0.37
0;-95.52;-19.96;7.57;120;39.32;-15.45;-12.9;-269.86;-77.33;13.12;266.96;25.02;-12.5;75.92;-7.35;135.05;4.88;10.1;-329.27;-30.58;189.05;3.01;1.49;-0.35
0;-109.06;-17.54;7.15;102.48;39.06;-15.8;-14.61;-275.49;-68.81;14.02;188.65;25.64;-13.12;84.71;-11.47;128.38;5.65;10.33;-304.06;-31.08;155.14;1.29;1.36;-0.3
0;-100.78;-19.03;8.51;123.7;43.46;-13.79;-15.22;-286.58;-75.9;15;256.94;24.4;-12.34;88.5;-7.19;121.45;5.82;10.06;-313.49;-31.97;155.38;5.02;1.42;-0.31
0;-101.65;-13.54;7.96;119.09;41.81;-14.49;-15.98;-277.4;-64.19;9.74;257.07;22.46;-12.56;86.31;-3.34;116.91;5.35;9.59;-314.06;-30.86;139.33;5.02;1.56;-0.48
0;-92.22;-6.87;7.77;126.22;44.77;-15.78;-14.57;-275.75;-57.23;8.29;280.5;22.32;-11.99;100.33;-8.28;95.63;4.87;9.17;-290;-29.54;98.95;3.86;1.39;-0.38
0;-110.82;-18.62;7.59;99.44;28.81;-13.94;-12.92;-256.26;-67.72;10.29;192.68;20.4;-13.26;51.19;-11.95;115.66;4.63;9.54;-323.48;-31.35;125.4;1.48;1.47;-0.27
0;-96.15;-14.74;8.03;126.89;37.26;-15.97;-11.97;-271.59;-51.98;8.83;284.6;24.73;-12.23;75.53;-6.66;103.36;4.3;9.81;-282.29;-30.88;105.23;3.89;1.75;-0.23
0;-97.82;-13.9;8.08;122.71;41.85;-15.4;-13.03;-288.74;-57.66;10;266.44;30.82;-12.53;92.35;-13.9;101.08;4.74;10.74;-267.83;-29.74;102.61;4.79;1.08;-0.21
0;-92.8;-18.23;8.26;127.94;34.08;-17.88;-13.42;-277.37;-63;9.87;288.15;29.97;-12.12;62.74;-6.68;128.57;5.11;11.18;-306.87;-29.13;150.15;3.59;1.56;-0.43
0;-106.69;-11.85;7.71;111.21;40.72;-15.53;-13.1;-274.9;-57.15;11.43;242.59;25.25;-13.13;95.75;-15.45;121.51;4.83;10.44;-329.67;-32.75;128.78;4.49;1.23;-0.27
0;-106.85;-20.07;8.19;108.85;48.19;-15.31;-15.31;-278.67;-68.34;11.05;218.44;30.86;-12.86;105.58;-14.51;130.07;5.56;11.33;-335.11;-31.09;129.76;5.16;1.55;-0.47
0;-105.54;-15.34;7.67;108.06;35.17;-13.29;-12.22;-258.8;-68.49;9.38;240.65;27.68;-12.9;64.17;-3.38;106.34;4.41;9.83;-286.11;-32.81;128.61;1.96;1.63;-0.62
0;-103.86;-15.76;7.77;110.36;35.9;-12.9;-11.5;-275.74;-60.89;12.36;222.91;27.4;-12.63;74.82;-10.63;129.66;5.11;10.1;-317.49;-33.62;180.77;3.57;1.82;-0.35
0;-105.9;-12.44;8.12;101.72;38.8;-13.23;-13.13;-267.08;-53.82;9.25;185.77;33.16;-12.39;84.36;-7.78;115.99;4.97;10.64;-294.65;-32.04;126.02;2.86;2.07;-0.73
1;-87.43;-23.84;4.84;30.91;16.02;-11.99;-9.77;-180.28;-60.44;16.86;-48.8;25.27;-11.07;8.98;-18.19;109.5;5.09;7.87;-325.2;-25.13;125.88;-0.66;3.18;0.14
1;-86.11;-26.09;4.66;37.06;17.83;-17.36;-13.07;-189.05;-62.47;16.48;-17.74;25.64;-11.11;5.41;-13.23;119.09;5.4;8.88;-353.48;-23.94;143.21;-0.51;2.94;-0.17
1;-85.48;-27.45;4.12;33.73;18.7;-14.76;-13.87;-186.76;-68.91;18.99;-17.61;23.02;-11.09;6.04;-10.96;111.78;6.07;8.13;-310.98;-22.78;144.37;-2.37;2.87;-0.08
1;-87.39;-29.11;3.88;32.32;14.11;-10.41;-12.5;-182.55;-61.98;18.01;-39.79;16.75;-11.2;-7.44;-7.93;90.7;6.02;6.19;-239;-20.9;108.14;-2.72;2.79;0.18
1;-90.59;-24.12;3.67;34.22;15.57;-12.14;-10.23;-185.29;-61.81;16.75;-17.25;18.18;-11.07;0.31;-4.4;86.46;5.44;6.26;-228.55;-21.79;118.62;-4.29;3.1;0
1;-93.43;-27.46;4.56;30.68;16.68;-10.83;-11.55;-182.7;-62.69;16.52;-53.83;22.56;-11.25;-1.29;-2.92;101.66;5.55;7.05;-267.4;-22.81;127.17;-0.71;3.12;-0.08
1;-92.51;-27.7;4.15;39.35;17.75;-12.74;-7.93;-189.82;-64.82;17.21;0.77;21.7;-11.47;2.09;-6.41;102.52;5.29;7.55;-280.59;-23.62;124.2;-3.46;2.89;0.18
1;-90.34;-24.57;4.98;33.26;14.51;-8.43;-11.49;-186.98;-55.18;16.88;-45.54;23.49;-11.1;4.14;-7.2;92.82;5.52;7.81;-262.97;-23.76;115.69;0.33;3.2;0.15
1;-92.87;-28.39;4.92;34.87;16.39;-12.37;-11.33;-191.78;-67.43;17.57;-40.09;23.25;-11.51;1.85;-4.8;102.45;5.4;7.68;-275.75;-25.57;124.17;-0.96;2.71;-0.02
1;-97.93;-27.41;5.04;35.83;17.77;-13.71;-13.31;-198.94;-67.51;18.2;-32.96;25.45;-11.49;1.34;-1.47;115.22;5.85;8.46;-313.14;-24.66;165.01;0.6;2.75;-0.21
1;-94.15;-27.95;5.14;37.39;14.95;-15.32;-9.35;-202.11;-68.35;18.49;-24.16;19.3;-11.63;-4.1;-2.03;88.07;5.93;7.5;-242.92;-26.86;124.13;-0.67;2.53;0.25
1;-93.54;-29.03;5.27;35.53;13.7;-17.49;-10.5;-198.83;-66.56;15.86;-54.28;26.09;-11.49;-6.27;2.9;93.94;4.88;8.6;-272.48;-27.51;122.9;-0.74;2.31;0.12
1;-91.94;-29.25;3.61;34.98;13.86;-10.19;-8.7;-184.86;-60.59;17.39;-17.37;15.36;-11.45;-9.37;6.5;71.31;5.13;6.08;-172.77;-23.38;117.87;-6.38;2.26;0.27
1;29.09;-13.64;5.37;192.77;35.67;-17.55;-8.35;-179.04;-54.05;17.09;384.32;15.75;-10.96;95;0.41;113.38;5.63;7.88;-244.05;-24.56;146.38;-0.61;5.99;-0.7
1;23.86;12.03;7.27;211.28;47.37;-12.05;-11.27;-247.51;-53.65;13.29;403.72;19.64;-10.4;110.63;17.76;108.9;3.92;8.01;-327.88;-30.68;165.37;2.27;3.02;-0.62
1;-77.47;-21.84;5.02;134.49;17.9;-12.36;-12.04;-245.14;-62.83;19.58;374.95;20.23;-13.08;36.54;-11.4;101.03;5.42;7.48;-288.88;-28.21;117.14;-2.02;1.93;0.15
1;-69.01;-9.13;7.37;140.5;38.23;-13.78;-11.21;-252.79;-61.21;17.31;331.22;21.85;-11.49;85.8;-4.75;116.75;5.44;8.84;-305.13;-31.07;148.3;2.79;1.6;-0.31
1;-59.05;-16.84;6.04;169.47;34;-14.19;-13.72;-254.53;-76.99;18.44;389.06;22.07;-12.98;89.06;-4.6;109.37;5.49;8.82;-340.15;-30.34;118.73;0.67;2.07;-0.2
1;-58.07;-4.03;7.75;163.11;45.31;-15.96;-13.94;-260.56;-65.45;16.96;381.28;25.36;-11.59;116.6;-5.27;134.39;5.67;9.94;-364.31;-31.31;220.21;2.55;1.53;-0.38
1;-63.12;-8.36;7.29;150.64;35.2;-14.11;-12.34;-257.84;-67.69;19.85;368.55;23.89;-11.54;80.25;-0.84;124.24;5.75;9.17;-325.4;-28.07;190.97;3.54;1.34;-0.3
1;-64.45;-6.76;7.1;152.16;39.35;-15.21;-14.62;-259.95;-70.84;17.08;374.05;23.14;-11.63;103.2;-5.14;129.19;5.65;9.43;-352.59;-30.35;207.64;3.04;1.52;-0.4
1;-54.18;-8.42;7.63;159.9;44.89;-13.09;-13.46;-258.85;-72.28;17.82;364.5;26.92;-11.45;106.12;-0.53;117.62;5.76;9.7;-295.71;-29.75;180.34;1.87;1.83;-0.3
1;-63.34;-6.15;7.83;153.3;42.04;-15.88;-11.66;-262.65;-61.99;14.39;371.7;24.3;-11.52;109.86;-4.13;117.48;4.81;9.55;-318.31;-30.3;160.82;4.27;1.39;-0.29
1;-64.82;-18.91;6.53;168.57;34.2;-14.17;-11.6;-263.7;-64.87;17.4;408.73;21.62;-13.15;103.73;-0.65;116.9;5.29;8.97;-296.87;-31.68;162.79;-0.07;2.03;-0.31
1;-54.2;-12.34;7.79;165.94;40.55;-13.03;-14.33;-270.24;-71.36;20.22;375.79;22.28;-11.36;81.44;1.83;124.36;5.99;9.42;-333.81;-31.31;192.16;3.96;1.75;-0.21
1;-65.7;-8.07;7.62;152.6;36.77;-14.59;-10.32;-262.91;-57.16;16.44;360.24;19.68;-11.6;93.89;-5.95;114.16;5.01;8.84;-318.98;-31.07;176.57;2.84;1.4;-0.15
1;-56.09;-9.89;7.57;164.02;45.56;-14.79;-14.88;-266.77;-80.12;17.64;371.27;25.35;-11.33;102.75;-4.04;132.5;5.79;9.9;-331.44;-28.97;223.05;3.37;1.66;-0.28
1;-59.94;-8.3;7.56;159.88;48.58;-13.94;-13.75;-264.69;-82.66;17.59;368.19;24.33;-11.57;117.22;-5.96;119.17;5.72;9.1;-307.89;-32.11;154.57;2.9;1.44;-0.18
1;-58.96;-5.13;7.61;162.23;45.61;-16.37;-14.51;-262.87;-70.24;18.21;380.69;21.58;-11.44;113.46;-6.6;126.64;5.68;9.39;-350.69;-30.2;198.89;3.21;1.56;-0.23
1;-54.76;-5.24;7.84;163.94;45.5;-14.79;-11.3;-265.7;-62.35;17.8;382.51;21;-11.44;111.8;-2.86;113.86;5.26;9.22;-307.12;-31.2;157.3;3.6;1.55;-0.35
1;-44.82;-8.3;8.15;179.57;44.15;-14;-12.16;-276.05;-64.18;17.86;403.94;19.24;-11.37;104.76;1.32;126.68;5.44;9.38;-350.07;-32.15;223.52;4.16;1.84;-0.22
1;-61.75;-9.56;7.88;162.91;44.23;-16.82;-11.37;-277.89;-69.66;17.07;384.08;23.18;-11.54;103.58;-7.31;111.37;5.16;9.57;-280.27;-30.47;160.39;4.34;1.37;-0.07
1;-62.9;-1.43;8.15;157.84;54.2;-15.21;-12.56;-272.91;-76.56;15.83;373.04;22.9;-11.7;142.25;-5.85;113.91;5.17;9.29;-316.68;-32.46;149.96;4.19;1.24;-0.41
1;-53.91;-6.12;7.83;166.79;41.97;-13.58;-10.9;-271.23;-60.55;17.05;391.94;18.06;-11.45;92.54;1.04;110.08;5.11;8.58;-315.76;-30.95;189.41;4.03;1.34;-0.12
1;-58.7;0.77;8.29;159.86;52.47;-15.25;-13.08;-266.83;-63.56;18.92;373.3;23.49;-11.49;124.44;-6.7;124;5.6;9.78;-351.18;-31.84;170.9;3.96;1.69;-0.42
1;-60.75;-7.39;7.98;159.28;43.78;-15.46;-11.5;-265.15;-76.11;18.65;370.27;26.21;-11.44;112.76;-2.43;120.59;5.59;9.76;-309.87;-29.98;161.8;3.62;1.43;-0.25
1;-52.97;-13.81;7.61;167.78;38.94;-13.08;-11.7;-267.04;-62.48;18.42;393.23;23.61;-11.3;92.45;0.44;111.13;5.3;8.98;-290.88;-30.61;175.82;2.6;1.66;0.13
1;-46.63;-8.95;7.65;174.63;41.67;-12.64;-13.2;-271.62;-78.94;17.69;396.52;20.01;-11.2;77.26;5.47;128.95;5.85;9.19;-362.89;-28.98;211.68;3.91;2;-0.38
1;-55.17;-12.64;7.35;163.11;38.61;-17.17;-12.93;-268.13;-72.2;18.48;383.31;22.76;-11.3;84.79;-5.56;123.63;5.62;9.36;-323.6;-29.18;168.58;3.41;1.56;-0.04
1;-54.72;-6.68;7.81;168.91;49.41;-19.49;-13.52;-279.16;-69.52;16.68;385.08;22.41;-11.37;115.55;-3.39;118.3;5.53;9.61;-305.4;-32.6;193.14;3.32;1.64;-0.11
1;-63.33;-9.06;7.89;155.93;41.51;-14.47;-13.65;-269;-67.73;19.59;365.39;19.84;-11.59;96.41;-7.43;115.88;6;8.8;-300.71;-30.43;141.44;3.08;1.41;-0.19
1;-54.12;-13.97;7.8;167.45;41.21;-14.22;-14;-272.55;-72.18;16.7;389.32;22.39;-11.36;86.22;1.8;114.19;5.23;8.88;-283.04;-30.98;167.19;2.69;1.82;0.01
1;-59.81;-13.33;7.92;161.04;39.91;-14.82;-13.62;-269.27;-66.49;20.79;383.99;25.85;-11.38;98.65;-3.73;110.91;5.8;9.3;-286.98;-30.5;145.25;2.5;1.67;0.11
1;-57.99;-7.2;8.08;161.06;37.68;-15.84;-13.83;-254.57;-58.82;21.66;398.7;25.26;-11.36;96;-6.55;115.61;5.98;9.56;-302.05;-32.3;152.38;2.65;1.63;-0.17
1;-52.18;-6.43;8.03;166.65;44.78;-14.82;-12.19;-261.59;-58.65;14.5;400.84;28.06;-11.38;115.29;-5.02;112.73;4.9;9.39;-290.08;-31.25;144.34;2.23;1.84;-0.33
1;-59.42;-9.99;7.94;155.36;39.24;-13.49;-12.16;-261.34;-64.94;18.71;372.61;26.95;-11.62;103.34;-1.55;107.06;5.07;9.26;-275.13;-31.84;124.87;1.76;1.7;-0.24
1;-65.35;-12.56;7.79;146.92;38;-17.76;-13.61;-254.96;-65.88;20.35;347.43;25.64;-11.63;99.21;-3.65;113.78;5.47;9.19;-328.34;-30.03;156.89;1.13;1.51;-0.05
1;-60.75;-9.3;8.06;150.74;38.19;-15.6;-13.86;-264.35;-79.47;15.83;356.16;33.35;-11.32;96.37;-5.89;114.82;4.88;10.16;-344.24;-30.27;137.54;3.84;1.99;-0.43
1;-67.76;-10.13;7.61;146.22;35.2;-15.32;-11.25;-264.4;-63.55;15.9;345.79;23.55;-11.56;82.48;-2.44;108.81;4.99;9.34;-282.29;-29.31;143.13;1.85;1.39;-0.1
1;-56.21;-8.96;7.88;161.35;41.44;-14.48;-11.92;-269.27;-67.21;17.03;362.16;25.65;-11.23;96.09;-4.93;104.23;5.1;9.17;-296.56;-30.1;110.91;1.61;1.91;-0.3
1;-54.73;-6.34;7.53;158.8;42.15;-13.47;-13.07;-261.66;-73.54;15.63;353.25;20.11;-11.46;106.98;-2.27;113.87;5.04;8.67;-307.34;-31.37;127.35;1.02;1.64;-0.58
1;-53.55;-8.84;8.02;161.73;41.32;-12.4;-11.72;-260.66;-62.05;17.05;374.18;25.04;-11.5;87.2;1.04;116.45;5.17;8.94;-312.42;-32.51;136.47;1.93;1.87;-0.32
1;-68.29;-10.01;7.8;145.93;43.87;-17.84;-12.34;-262.86;-73.45;18.79;334.5;26.2;-11.72;108.3;-6.67;111.59;5.48;9.26;-304.38;-31.76;130.61;1.49;1.45;-0.15
1;-58.84;-12.13;7.71;157.16;37.36;-14.06;-10.41;-259.4;-65.61;18.14;374.6;22.66;-11.47;90.24;1.7;107.19;5;8.61;-265.6;-30.25;133.03;1.83;1.87;-0.1
1;-59.92;-7.69;8.39;157.63;41.2;-15.86;-12.55;-268.01;-60.99;16.98;355.01;30.14;-11.41;97.46;-8.55;106.58;5.28;9.67;-295.5;-31.42;117.84;4.52;1.82;-0.16
1;-48.54;-11.73;8.49;172.64;43.53;-15.34;-13.28;-266.67;-81.41;18.39;396.26;21.73;-11.5;99.37;-0.04;131;5.55;9.44;-346.82;-32.49;196.96;2.36;1.86;-0.26
1;-56.81;-4.74;7.69;162.51;44.29;-14.05;-11.75;-262.57;-69.77;16.47;377.42;26.88;-11.62;115.44;-4.22;116.9;5.01;9.44;-335.42;-30.88;147.23;1.51;1.83;-0.3
1;-65.15;-11.82;7.53;151.29;38.21;-14.57;-12.8;-263.43;-63.96;16.62;349.62;24.65;-11.66;89.69;-3.12;109.84;5.27;8.98;-285.6;-29.31;115.9;1.61;1.6;-0.18
1;-55.12;-12.33;8.09;164.85;39.76;-15.03;-16.12;-263.2;-81.74;16.08;387.83;29.2;-11.46;90.69;-0.97;130.61;5.38;10.15;-327.86;-31.73;165.34;2.09;1.88;-0.3
1;-55.58;-3.15;7.7;165.5;44.6;-15.93;-12.09;-268.7;-70.95;18.54;388.08;21.3;-11.31;101.09;-4.07;116.09;5.51;9.15;-334.42;-30.75;137.7;3;1.95;-0.36
1;-59.92;-4.26;7.96;161;45.42;-13.94;-14.77;-265.65;-72.09;16.52;387.46;27.16;-11.62;110.19;-5.37;120.46;5.48;9.87;-307.33;-29.61;130.13;2.98;1.7;-0.44
1;-32.8;1.71;8.75;195.72;53.12;-14.71;-12.82;-276.93;-58.01;17.46;419.45;30.3;-10.89;116.79;1.09;121.34;5.12;10.65;-336.46;-33.45;156.1;3.15;2.62;-0.59
1;-38.06;-3.85;8.85;189.26;43.45;-14.83;-15.28;-270.22;-67.99;16.74;412.05;27.96;-11.27;79.72;-3.98;127.54;5.46;10.43;-334.08;-34.2;129.66;2.65;2.15;-0.62
1;-41.8;-0.57;8.75;189.57;51.88;-15.34;-12.92;-279.56;-71.99;14.89;403.46;26.88;-11.22;112.8;2.2;125.38;5.12;10.59;-345.29;-32.29;160.57;3.47;2.48;-0.64
1;-33.97;-2.62;8.2;188.96;54.26;-12.89;-15.57;-275.23;-71.77;15.98;398.04;27.17;-11.12;123.72;-4.25;113.91;5.36;10.07;-321.25;-33.57;100.59;1.11;2.41;-0.59
1;-32.17;6.09;9.12;200.59;63.71;-18.85;-15.43;-286.13;-67.09;14.32;419.2;18.96;-10.84;123.75;3.13;108.45;5.46;9.82;-339.18;-32.97;125.94;4.6;2.83;-0.85
1;-35.58;-4.24;8.78;194.33;52.66;-16.04;-13.71;-279.28;-69.16;16.32;413.93;24.97;-11.15;94.88;-0.08;132.47;5.52;10.45;-345.9;-33.64;147.17;4.39;2.18;-0.33
1;-39.13;-7.3;8.53;188.67;43.27;-17.24;-13.37;-278.96;-78.67;17.04;411.15;27.29;-11.23;84.82;0.47;126.93;5.29;10.5;-330.84;-32.31;170.95;3.12;1.88;-0.32
1;-37.74;-1.4;8.27;192.51;53.48;-15.39;-12.65;-280.21;-74.37;17.69;429.66;26.4;-11.27;118.39;-3.99;112.09;5.28;9.92;-315.21;-32.19;104.02;3.01;2.29;-0.21
1;-48.37;4.2;9.48;182.27;69.3;-17.57;-15.77;-284.07;-69.44;17.09;397.77;28.58;-11.47;150.77;-12.18;116.43;5.93;11.05;-323.89;-33.72;131.73;4.52;2.45;-0.56
1;-36.08;-3.6;8.93;198.47;55.02;-22.17;-12.25;-277.64;-74.92;14.08;432.61;34.22;-11.49;118.26;0.26;128.4;5.03;12.06;-327.24;-35.2;159.59;2.53;1.94;-0.58
1;-35.19;-7.81;8.68;192.22;47.79;-14.09;-15.59;-279.71;-74;16.68;407.26;30.9;-11.28;102.18;-3.59;129.97;5.52;10.94;-336.42;-32.8;167.4;1.68;2.56;-0.35
1;-40.05;-0.26;9.18;191.41;50.19;-17.42;-12.39;-277.47;-68.19;14.85;429.05;21.98;-11.05;104.59;-4.95;117.1;5.18;10.11;-308.63;-32.23;130.41;4.59;2.49;-0.58
1;-42.32;-2.3;8.11;183.4;50.59;-12.9;-12.97;-284.39;-67.96;15.88;383.02;23.98;-11.37;103.67;-1.75;111.52;5.23;9.65;-309.76;-30.2;118.4;2.44;2.26;-0.28
1;-37.46;-2.56;8.64;189.23;54.12;-13.19;-11.62;-281.36;-66.11;15.15;395.9;26.06;-11;108.27;1.73;112.37;5.03;10.05;-301.65;-33.13;116.91;2.94;2.39;-0.57
1;-27.84;-1.96;9.03;203.84;54.12;-14.46;-14.25;-286.25;-74.23;16.96;431.54;26.75;-10.9;100.63;4.39;128.16;5.25;10.66;-322.12;-33.84;152.58;3.47;2.57;-0.48
1;-43.24;-3.73;8.82;188.96;45.84;-14.84;-11.97;-273.75;-62.41;18.13;429.63;27.86;-11.57;97.91;-1.42;110.6;5.15;10.16;-297.71;-32.82;120.5;2.9;1.84;-0.32
1;-32.63;-3.06;9;198.2;47.97;-15.58;-15.26;-283.99;-81;16.34;421.1;30.05;-11.15;96.41;0.58;131.76;5.42;11.08;-373.8;-34.36;176.5;3.39;2.4;-0.43
1;-29.18;-5.6;8.98;199.21;48.14;-13.85;-13.2;-283.51;-80.86;15.53;418.2;26.37;-10.97;86.56;2.7;121.87;5.15;10.12;-349.18;-35.4;156.6;3.31;2.46;-0.33
1;-32;-2.02;8.52;199.34;52.38;-12.41;-13.44;-281.04;-71.42;16.11;413.11;22.6;-11.14;110.87;-0.28;106.73;4.97;9.71;-312.14;-34.78;122.67;2.61;2.55;-0.31
1;-23.95;1.37;9.76;212.26;57.27;-15.49;-11.65;-291.22;-67.11;16.5;417.71;24.91;-10.72;127.45;1.03;125.16;5.06;10.86;-305.03;-35.14;209.37;4.41;3.12;-0.41
1;-44.53;2.98;9.1;180.44;60.02;-18.54;-12.14;-262.64;-76.44;15.88;386.56;31.38;-11.34;135.39;-11.65;126.85;5.24;11.03;-366.86;-35.08;142.54;6.26;2.99;-0.92
1;-27.55;-0.69;8.63;200.84;59.04;-13.58;-13.75;-284.32;-77.58;9.76;413.33;36.99;-11.03;113.91;8.94;117.81;4.83;11.23;-294.04;-32.61;159.76;2.56;2.81;-0.79
1;-41.74;-1.11;8.31;187.68;59.52;-13.78;-12.75;-279.2;-78.74;18.59;407.9;23.15;-11.45;118.07;-0.54;104.7;5.47;9.59;-268.52;-32.09;133.02;2.73;2.13;-0.41
1;-34.02;-6.07;8.84;196.72;55.2;-20.62;-14.52;-286.09;-84.94;16.66;417.88;29.13;-11.39;102.94;-0.04;135.03;5.4;11.05;-384.22;-31.92;152.56;2.76;2.17;-0.4
1;-39.01;-3.48;9.43;194.15;57.81;-20.26;-16.81;-287.33;-91.7;16.65;429.49;28.47;-11.47;106.23;-1.46;131.96;5.76;10.88;-339.72;-35.81;187.55;4.48;1.96;-0.4
1;-41.59;2.51;9.65;194.5;54.29;-21.77;-15.26;-286.69;-84.64;16.93;423.61;30.86;-11.25;110.72;-7.68;135.13;5.42;11.63;-357.27;-34.76;156.36;5.05;2.03;-0.71
1;-46.62;10.42;9.79;185.64;67.25;-16.98;-15.35;-275.06;-79.26;15.6;411.79;25.08;-11.21;131.88;-7.08;133.67;5.69;11.07;-381.91;-34.54;122.26;6.67;2.11;-0.97
1;-24.51;2.05;9.36;204.37;55.15;-18.03;-12.65;-278.8;-71.35;15.01;416.41;30.44;-10.91;113.59;-0.65;125.34;5.05;11.49;-334.99;-34.73;185.32;1.55;2.74;-0.61
1;-40.94;4.09;9.39;185.29;59.37;-17.24;-12.78;-272.96;-75.68;15.46;395.28;26.62;-11.5;131.77;-5.54;111.62;5.11;10.69;-311;-35.19;135.23;5.13;2.17;-0.68
1;-23.65;-0.09;9.65;205.39;57.83;-18.15;-14.13;-286.15;-79.63;15.27;431.7;34.49;-10.95;116.02;4.88;132.06;5.05;11.81;-334.42;-38.46;184.76;3.03;2.7;-0.86
1;-43.86;-1.78;9.49;187.85;51.33;-14.59;-14.52;-275.96;-79.7;14.26;412.85;30.24;-11.41;121.11;-7.32;125.89;5.29;10.82;-326.27;-34.86;157.65;4.86;2.26;-0.51
1;-39.17;9.76;9.38;190.7;65.5;-16.47;-12.48;-285.99;-65.98;12.85;396.88;28.93;-11.25;132.7;-8.56;109.45;4.98;10.77;-304.78;-35.01;112.59;2.66;2.46;-0.67
1;-38.21;-2.41;9.29;190.78;54.35;-18.38;-15.04;-280.7;-84.26;14.63;434.15;28.26;-11.45;105.39;0.8;122.2;5.11;10.56;-330.98;-33.46;105.63;2.53;1.96;-0.75
1;-39.66;-2.68;9.24;193.64;56.88;-15.51;-12.36;-282.44;-88.07;13.89;405.34;27.26;-11.28;113.47;1.46;125.87;5.08;10.71;-354.17;-35.13;152.44;2.54;2.54;-0.43
1;-28.26;-0.32;9.53;200;55.4;-17.65;-12.63;-286;-71.75;15.2;416.39;31.02;-10.92;106.72;0.08;119.29;5.11;11.45;-325.28;-35.04;142.03;3.32;2.88;-0.58
1;-42.36;-6.05;9.34;186.65;55.18;-19.63;-12.79;-281.22;-73.64;15.48;394.07;25;-11.54;105.99;-0.65;120.51;5.09;10.39;-300.7;-36.6;196.42;2.69;2.09;-0.17
1;-25.06;-1.12;9.18;200.48;52.38;-13.64;-13.32;-275.08;-71.2;13.2;418.7;31.88;-10.97;119.95;-2.36;129.01;4.9;11.18;-327.48;-34.99;207.19;2.98;2.99;-0.56
1;-35.64;2.74;9.08;191.93;53.66;-14.24;-13.59;-271.42;-76.69;13.78;421.63;24.29;-11.39;111.14;-5.14;123.58;4.62;10.02;-331.01;-34.97;163.45;1.73;2.34;-0.53
2;-148.57;-28.63;8.06;55.65;27.96;-18.54;-9.86;-282.84;-86.41;3.95;-53.29;37.08;-13.26;8.29;-7.4;83.84;3.61;12.76;-218.23;-24.57;94.14;9.16;2.26;-0.47
2;-148.06;-24.58;7.58;59.02;26.13;-19.79;-9.78;-259.74;-81.03;4.39;-46.05;34.04;-13.58;21.43;-5.65;85.72;3.9;13.02;-238.5;-25.2;121.3;6.74;1.72;-0.52
2;-150.83;-28.66;8.76;60.69;32.59;-17.77;-12.52;-313.08;-102.61;4.5;-85.71;38.23;-13.26;19.71;-9.38;92.62;4.27;12.86;-250.91;-26.69;149.24;12.87;1.6;-0.53
2;-151.85;-32.71;8.36;58.05;23.88;-19.35;-13.11;-299.8;-80.02;5.53;-79.37;35.71;-13.65;-2.46;-4.57;91.7;4.54;12.71;-257.96;-26.5;117.54;9.84;1.89;-0.16
2;-145.85;-25.56;8.37;55.11;34.16;-18.1;-6.28;-251.61;-96.02;5.09;-72.92;35.77;-13.15;30.22;0.73;80.47;3.55;12.76;-192.44;-26.68;121.73;9.21;2.14;-0.68
2;-144.85;-28.23;8.02;59.05;30.32;-19.79;-7.32;-275.84;-87.84;4.89;-40.09;34.82;-13.54;18.92;-5.87;83.52;3.6;12.94;-242.69;-25.88;93.74;8.17;1.97;-0.29
2;-151.92;-28.4;9.06;54.93;32;-19.43;-11.73;-312.88;-86.39;4.93;-84.36;39.95;-12.82;18.63;-11.69;93.52;4.34;13.38;-248.2;-26.33;110.48;11.23;2.85;-0.12
2;-151.12;-26.94;7.89;59.64;35.83;-19.98;-8.83;-291.06;-96.19;4.83;-85.33;34.68;-13.67;30.81;-8.91;81.12;4.01;12.47;-211.6;-23.77;127.58;9.28;1.98;-0.43
2;-148.53;-26.66;8.74;58.44;30.81;-20.73;-11.71;-293.08;-84.65;4.59;-54.78;38.19;-13.31;19.37;-10.99;87.78;4.13;13.51;-243.17;-25.27;123.08;11.18;2.3;-0.44
2;-150.53;-29.16;7.68;56.13;29.29;-18.91;-11.82;-258.15;-77.66;5.39;-87.2;34.71;-13.3;14.24;-6.55;84.36;4.36;12.8;-245.37;-25.73;106.71;7.44;2.24;-0.39
2;-149.91;-30.64;8.62;61.14;33.51;-20.21;-9.2;-307.73;-97.72;5.5;-88.29;34.77;-13.74;25.09;-4.7;76.38;4.06;12.66;-213.59;-25.79;110.44;11.09;2.12;-0.43
2;-147.67;-26.64;9.83;60.56;32.2;-18.68;-13.65;-285.06;-89.34;5.59;-76.79;38.42;-12.97;25.18;-10.43;84.98;4.81;13.77;-243.69;-29.07;110.63;15.65;1.96;-0.31
2;-141.64;-23.87;8.07;63.73;31.35;-20.4;-9.43;-254.15;-84.27;4.88;-7.18;33.86;-14.01;29.44;4.12;66.95;4.01;13.22;-145.18;-26.69;115.99;6.42;1.24;-0.47
2;-152.54;-29.38;8.81;62.89;29.75;-20.33;-13.54;-326.42;-86.96;5.17;-74.23;37.42;-13.83;19.76;-16.79;84.89;4.7;13.26;-242.56;-28.62;109.02;11.32;1.59;-0.07
2;-149.8;-24.93;7.62;59.77;31.21;-21.09;-8.28;-315.13;-77.44;3.76;-70.21;33.11;-13.66;26.86;-22.37;78.35;3.51;12.56;-174.31;-25.53;77.33;7.43;2.01;-0.09
2;-146.52;-24.7;8.12;59.54;36.52;-21.22;-15.71;-257.1;-106.72;4.58;-43.22;39.03;-13.52;26.07;-16.03;109.66;4.94;13.61;-311.91;-25.22;200.35;10.52;1.06;-0.58
2;-149.23;-28.89;7.85;55.3;31.12;-18.88;-10.83;-268.48;-90.63;5.03;-45.28;33.75;-13.61;21.57;-11.11;82.44;4.07;12.12;-236.59;-26.09;123.15;8.42;1.84;-0.17
2;-143.5;-28.95;7.66;59.38;29.86;-18.24;-6.33;-261.76;-81.51;4.91;-28.77;30.45;-13.47;26.19;1.86;71.15;3.64;12.03;-192.78;-24.22;72.33;8.54;1.92;0.08
2;-142.39;-30.72;7.65;62.01;25.24;-20.31;-9.57;-273.82;-83.16;4.38;-69.77;36.08;-13.3;8.31;1.12;82.29;3.92;13.06;-261.93;-27.37;124.47;7.62;1.58;-0.02
2;-148.68;-31.58;8.64;61.78;26.75;-18.61;-8.82;-297.3;-80.96;5.09;-55.13;37.01;-13.28;10.61;-3.31;86.35;4.02;13.04;-264.59;-27.61;96.14;10.61;1.9;0.04
2;-151.43;-30.84;7.43;64.33;31.78;-18.3;-9.3;-320.32;-95.48;5.22;-81.9;34.55;-13.84;24.37;-1.88;80.82;3.89;12.49;-254.38;-25.07;115.16;8.35;2.05;-0.01
2;-152.8;-30.76;8.65;60.73;32.6;-19.75;-14.26;-342.61;-94.46;4.58;-91.83;38.03;-13.43;11.68;-10.02;96.95;4.58;12.74;-246.29;-26.7;115.37;11.94;2.16;-0.15
2;-148.23;-29.35;7.53;57.62;31.98;-18.05;-8.43;-298.08;-87.76;6.18;-70.97;36.76;-13.46;19.61;-3.75;86.62;4.11;12.59;-240.74;-25.61;111.9;6.91;2.01;-0.01
2;-151.44;-30.26;7.8;59.71;30.41;-20.18;-8.19;-303.76;-91.29;4.98;-78.21;35.25;-13.44;16.33;-8.86;86.75;3.98;12.69;-239.8;-24.94;106.46;7.13;1.91;-0.2
2;-145.69;-32.26;7.68;58.27;31.36;-18.63;-10.21;-273.05;-91.61;5.68;-83.38;37.7;-13.32;15.37;-0.95;82.63;4.14;12.83;-239.71;-25.85;133.96;7.78;2.25;-0.17
2;-149.55;-30.92;7.39;62.77;30.91;-19.96;-10.42;-327.15;-91.42;5.01;-84.55;34.73;-13.68;13.23;-9.9;83.78;3.99;12.53;-223.48;-26.13;115.01;6.89;1.85;0.15
2;-145.51;-29.08;6.86;57.16;24.72;-20.1;-9.47;-254.6;-70.75;4.47;-42.94;30.85;-13.72;5.51;-3.18;72.78;3.58;12.36;-200.51;-24.69;99.65;6.21;1.83;0.11
2;-147.45;-26.4;7.54;57.16;29.22;-19.84;-8.01;-282.48;-80.68;4.68;-66.35;32.26;-13.15;9.36;-9.83;74.53;3.69;12.26;-204.59;-24.59;89.33;8.09;2.36;0.04
2;-146.29;-25.17;7.92;59.46;31.38;-17.66;-10.5;-281.66;-88.86;7.09;-76.64;37.21;-13.18;20.32;-14.47;85.11;4.38;13.15;-223.35;-24.52;112.49;10.29;2.08;-0.24
2;-143.37;-30.18;7.05;58.94;35.25;-21.21;-12.17;-265;-102.79;6.13;-87.3;39;-13.52;18.66;-10.86;97.96;4.5;13.24;-267.68;-23.84;128.88;9.74;1.94;0.41
2;-150.92;-29.73;8.37;63.85;25.46;-20.2;-12;-304.2;-83.11;5.29;-74.32;37.36;-13.63;6.68;-9.11;87.78;4.42;13.47;-235.22;-27.2;112.27;9.5;1.59;-0.11
2;-150.22;-30.81;6.84;62.95;31.15;-21.61;-10.16;-282.08;-91.67;5.59;-59.5;36.33;-13.99;22.41;-7.73;85.21;3.96;12.8;-229.89;-24.2;121.35;5.82;1.73;0.24
2;-148.69;-24.74;7.63;59.67;28.68;-19.76;-10.43;-295.13;-84.09;5.12;-79.85;34.92;-13.54;20.63;-13.08;82.79;4.01;13.07;-209.08;-24.6;95.96;8.56;1.84;-0.2
2;-148.99;-30.02;7.1;60.62;31.69;-20.46;-9.79;-273.04;-88.17;5.98;-54.88;35.55;-13.89;18.43;-14.06;80.3;4.09;12.81;-251.99;-24.61;110.55;7.92;2.28;0
2;-144.43;-29.06;7.67;60.04;33;-19.86;-10.66;-282.65;-85.41;5.32;-71.21;37.85;-13.39;26.6;-9.87;78.55;4.11;13.34;-199.53;-25.06;112.6;7.37;1.31;-0.15
2;-152.57;-29.12;7.44;63.36;24.31;-19.55;-9.45;-307.61;-72.57;4.54;-54.65;31.81;-13.93;10.55;-10.07;79.74;3.72;12.31;-239.88;-28.03;87.42;8.61;1.96;0.36
2;-149.92;-27.38;7.76;60.7;28.71;-20.31;-11.12;-292.35;-78.93;7.14;-72.92;36.42;-13.56;21.07;-9.66;86.18;4.46;13.25;-232.99;-24.94;96.21;7.61;1.82;0.11
2;-144.74;-30.35;7.01;63.01;32;-20.53;-10.1;-276.12;-89.83;5.67;-28.9;36.07;-13.86;19.47;-10.01;78.82;4.13;12.91;-242.87;-24.51;104.32;6.64;2.2;0.23
2;-143.84;-27.81;8.49;57.57;33.7;-19.28;-11.44;-262.4;-97.81;4.98;-66.7;35.37;-13.62;23.3;-3.75;75.59;4.09;12.91;-204.46;-26.37;113.04;11.65;1.81;-0.23
2;-146.14;-30.1;8.02;61.15;29.5;-20.36;-10.16;-284.72;-86.68;5.24;-33.1;36.08;-13.48;11.99;-11.9;78.34;4.27;13.2;-224.29;-25.82;90.98;9.99;2.11;0.27
2;-143.25;-28.97;7.99;58.22;37.37;-22.33;-8.61;-287.63;-86.86;6.39;-64.9;32.23;-13.41;35.41;-8.76;77.7;4.32;12.56;-175.52;-25.07;98.53;8.33;1.66;0.44
2;-150.24;-26.08;7.46;60.08;29.73;-20.79;-6.54;-281.11;-76.93;5.74;-68.65;32.73;-13.9;18.27;-13.85;79.04;3.51;12.59;-221.94;-25.83;78.9;5.78;1.69;0.46
2;-146.21;-26.65;7.05;61.02;32.95;-21.04;-7.61;-258.64;-83.52;6.41;-7.76;28.15;-13.59;24.16;-9.58;74.54;3.76;12.39;-158.94;-23.4;76.68;6.16;2.61;0.36
2;-140.35;-27.5;8.37;64.57;33.33;-20.79;-7.39;-252.13;-86.6;5.78;10.42;34.72;-14.27;37.81;-9.51;75.33;4.24;13.08;-192.5;-26.4;109.11;8.29;1.81;0.37
2;-147.26;-23.66;7.77;63.42;31.69;-18.86;-6.85;-260;-84.47;5.62;-16.07;33.88;-13.89;43.45;-8.24;73.14;4.08;12.85;-166.97;-26.06;109.83;7.46;1.77;0.4
2;-147.18;-26.8;7.13;60.65;32.92;-20.54;-8.08;-274.9;-84.07;6.29;-49.33;33.75;-13.93;22.06;-4.02;69.61;4.22;12.47;-170.64;-24.72;98.28;5.94;1.84;0.32
2;-141.47;-23.01;7.31;61.87;31.58;-18.96;-6.31;-249.1;-76.45;5.12;-3.51;33.06;-13.91;58.76;-7.14;78.85;3.71;12.68;-204.48;-24.91;109.24;5.06;1.37;-0.05
2;-148.38;-25.86;7.19;60.11;31.61;-20.95;-8.72;-284.6;-78.04;5.66;-61.46;35.64;-13.73;23.27;-10.96;80.74;4.16;12.85;-208.18;-25.11;102.05;3.76;1.67;0.22
2;-144.98;-28.7;6.9;60.71;30.32;-19.87;-6.35;-267.98;-78.91;6.28;-44.82;29.16;-13.85;19.73;-7.3;62.34;3.66;11.86;-180.52;-23.42;72.42;5.13;1.75;0.2
2;-144.79;-26.6;7.74;56.46;31.76;-18.89;-6.9;-261.17;-88.68;5.45;-38.49;35.16;-13.84;24.32;-12.84;75.42;3.73;12.87;-211.88;-24.23;105.86;7.42;1.95;-0.07
2;-153.54;-23;7.17;63.04;29.08;-20.73;-8.09;-296.37;-71.97;5.33;-79.29;35.22;-13.62;22.63;-19.09;78.93;3.91;13.05;-199.17;-25.32;105.46;5.57;1.51;-0.04
2;-146.96;-26.81;7.45;60.84;36.46;-20.11;-7.55;-296.67;-82.94;6.27;-35.96;34.77;-14.01;42.26;-14.71;77.16;4.14;12.5;-206.55;-26.82;115.01;6.09;1.55;0.35
2;-142.86;-29.04;7.1;61.76;32.27;-19.23;-6.67;-244.46;-79.42;6.17;2.35;36.77;-13.89;32.57;-3.14;68.87;3.99;12.94;-196.71;-23.12;119.02;4.78;1.73;-0.02
2;-149.88;-24.58;6.84;58.87;36.15;-20.66;-9.75;-282.23;-90.04;5.56;-66.5;33.77;-13.81;35.18;-13.63;83.44;3.83;12.31;-198.48;-24.13;90.83;4.42;2.04;0.27
2;-149.62;-28.13;7.26;62.61;27.43;-20.31;-5.06;-261.87;-75.59;6.37;-14.03;32.79;-13.98;17.64;-11.75;70.28;3.79;12.48;-213.42;-25.04;74.79;6.8;2.32;0.6
2;-143.14;-31.67;7.71;61.34;31.89;-20.27;-10.27;-261.88;-90.33;5.43;-38.76;34.31;-14.14;23.03;-3.29;74.8;4.11;12.84;-223.39;-24.1;118.04;8.68;1.72;-0.18
2;-142.27;-27.6;7.24;65.63;35.44;-22.05;-6.98;-263.44;-83.95;4.73;-1.04;33.98;-13.81;30.7;-12.05;77.72;4.02;13.36;-200.5;-24.3;98.78;8.07;1.82;0.2
2;-151.04;-28.38;7.72;62.28;35.44;-21.44;-8.39;-282.75;-89.6;5.45;-65.98;34.84;-13.75;32.72;-18.68;79.76;4.11;12.75;-201.81;-24.25;109.39;8.96;1.75;0.22
2;-149.15;-26.38;8.07;60.67;28.07;-20.89;-8.01;-282.46;-74.02;6.04;-50.75;31.72;-13.77;17.94;-17.82;64.71;4.1;12.69;-154.55;-25.19;59.96;9.12;1.73;0.08
2;-146.47;-27.25;7.31;56.68;33.45;-20.46;-10.99;-259.02;-89.76;6;-78.1;35.18;-13.72;16.59;-10.22;77.95;4.3;12.67;-206.01;-25.36;116.68;8.11;1.87;0.2
2;-148.73;-25.24;6.82;63.32;27.8;-19.74;-11.76;-315.65;-76;6.13;-79.14;33.88;-13.53;17.74;-20.09;76;4.36;12.69;-194.55;-27.27;70.51;6.02;1.74;0.25
2;-148.05;-31.68;7.34;63.59;34.39;-21.45;-12.91;-335.55;-94.92;6.27;-62.16;36.74;-14.16;26.59;-17.23;78.78;4.67;12.97;-206.94;-24.5;111.82;7.97;1.53;0.13
2;-154.4;-23.98;7.37;60.18;29.18;-19.34;-8.1;-306.85;-75.47;5.03;-72.97;27.82;-13.97;21;-26.09;76.2;3.9;11.98;-216.54;-29.11;56.47;6.19;1.87;0.51
2;-153.36;-24.03;8.18;58.56;28.86;-21.5;-8.54;-276.36;-79.36;5.33;-77.91;34.03;-13.75;16.84;-23.64;77.06;4.39;13.19;-210.46;-25.84;97.44;9.46;2.15;-0.53
2;-148.71;-24.85;7.39;59.13;30.37;-21.47;-10.85;-273.25;-97.36;5.67;-42.94;35.79;-14.27;20.41;-23.28;87.63;4.26;13.35;-264.12;-26.34;153.88;7.4;1.62;-0.16
2;-151.29;-25.81;7.76;58.23;29.2;-19.78;-12.73;-269.24;-79.44;10.06;-88.64;40.18;-13.25;20.22;-11;91.88;4.64;13.71;-263.77;-25.12;117.34;7.58;1.78;-0.21
2;-147.71;-28.79;6.9;57.56;30.03;-20.77;-9.44;-259.38;-81.45;5.7;-79.71;36.12;-13.6;15.09;-12.65;84.85;4.16;13.32;-239.62;-23.26;85.55;5.68;1.82;0.28
2;-140.73;-31.29;6.73;58.83;31.62;-19.15;-11.88;-265.85;-84.17;5.27;-19.56;34.56;-14.13;24.1;-3.24;76.56;4.34;12.43;-239.48;-26.13;107.06;3.07;1.13;-0.22
2;-150.55;-24.32;7;57.4;33.83;-18.58;-9.26;-279.9;-81.66;5.63;-84.59;31.34;-13.49;35.02;-12.05;70.1;4.12;11.99;-196.65;-23.53;96.89;5.3;1.89;0.19
2;-153.82;-27.05;7.24;64.37;38.36;-21.08;-8.25;-314.07;-89;6.06;-65.93;33.92;-14.28;42.16;-14.16;75.77;3.92;12.46;-218.6;-24.72;120.44;6.45;1.85;0.22
2;-153.28;-27.45;7.36;63.21;36.61;-19.82;-12.46;-334.7;-84.45;7.51;-84.89;37.39;-13.64;34.64;-11.22;82.6;4.28;12.62;-219.3;-28.93;114.35;5.99;1.75;0.2
2;-146.69;-27.75;7.34;56.89;31.43;-20.07;-10.13;-260.68;-83.46;5.69;-74.91;30.75;-13.83;20.13;-8.78;67.23;4.04;11.77;-160.81;-24.16;80.23;9.45;2.08;0.34
2;-155.44;-29.45;6.45;59.3;31;-20.69;-10.36;-294.49;-76.99;6;-91.05;33.56;-14.04;22.5;-11.28;75.73;4.05;12.17;-229.89;-22.73;91.13;1.94;1.74;0.31
2;-150.46;-25.57;7.43;61.57;33.11;-19.31;-12.49;-318.83;-82.98;6.27;-82.25;36.76;-13.53;28.43;-13.3;81.07;4.39;12.39;-218.21;-27.52;108.93;6.01;1.87;0.07
2;-146.78;-30.4;7.14;60.8;34.36;-19.94;-10.3;-318.81;-92.12;6.3;-82.79;34.02;-13.6;24.46;-15.49;75.52;4.19;12.28;-209.9;-27.21;98.35;7.32;2.02;0.44
2;-141.97;-31.64;7.9;60.32;38.1;-22.08;-10.46;-289.88;-99.35;7.12;-56.31;36.68;-13.95;27.48;-8.15;78.32;4.35;13.25;-194.72;-27.63;101.37;9.73;1.91;0.18
2;-143.26;-29.2;8.07;62.31;30.93;-20.87;-10.04;-272.21;-94.38;5.01;-70.56;32.97;-13.01;18.84;-5.14;74.36;4.16;12.94;-211.92;-23.76;97.82;12.08;1.5;0.15
2;-147.76;-28.62;8.06;63.79;33.92;-20.38;-13.04;-315.2;-87.06;5.1;-75.25;36.24;-13.37;28.49;-16.33;81.18;4.45;12.88;-220.96;-23.39;87.74;11.7;1.58;0.31
2;-144.92;-31.01;7.98;65.16;35.77;-22.85;-9.81;-271.36;-90.27;5.71;-40.78;35.92;-13.74;27.79;-2.83;76.29;4.15;13.43;-202.36;-23.93;112.79;11.9;2.09;0.04
2;-149.89;-17.68;8.02;57.94;33.67;-18.37;-8.14;-252.76;-72.09;5.9;-74.41;33.64;-13.86;40.45;-11.93;70.34;3.79;12.89;-204.61;-26.86;99.47;7.83;1.95;-0.05
2;-151.73;-23.39;7.5;56.97;34.08;-20.86;-12.27;-265.8;-86.01;5.76;-88.58;36.99;-13.09;27.88;-12.99;92.1;4.6;13.32;-261.77;-23.55;120.32;8.75;2.58;0.04
2;-150.36;-28.01;8.08;60.91;32.63;-19.38;-10.52;-268.02;-85.48;5.17;-82.84;35.46;-13.57;27.07;-2.56;79.6;4.16;12.85;-271.73;-25.36;130.61;8.92;2.05;-0.17
2;-151.83;-26.47;8.36;64.39;29.72;-23.71;-9.24;-296.9;-78.05;5.59;-80.41;34.12;-14.07;22.34;-9.19;81.61;4.07;13.55;-255.49;-25.18;98.82;9.52;1.85;-0.02
2;-151.12;-27.84;7.94;63.19;31.6;-18.89;-7.27;-279.49;-78.35;5.94;-83.61;35.98;-13.34;28.7;7.41;70.37;3.63;13.11;-211.57;-25.03;98.75;7.86;1.82;0.1
2;-146.91;-27.4;8.44;61.45;34.88;-21.38;-12.05;-262.49;-87.2;6.34;-59.01;37.25;-13.64;30.78;-14.41;77.75;4.65;13.64;-247.69;-25.21;120.12;11.27;1.98;-0.09
2;-150.9;-24.09;8.88;62.31;33.45;-18.56;-13.6;-285.79;-79.57;7.44;-83.41;37.02;-13.57;34.54;-8.62;76.76;4.55;13.17;-209.8;-25.78;90.82;12.62;1.79;0.11
2;-154.41;-24.78;9.17;65.48;33.05;-20.98;-10.72;-325.93;-79.58;6.7;-80.25;37.21;-13.21;25.26;-9.36;79.18;4.64;13.47;-223.91;-28.16;106.83;11.86;1.84;0.24
2;-142.44;-18.07;7.94;57.78;42.47;-20.66;-13.52;-255.23;-98.44;7.13;-78.13;37.99;-13.62;46.27;-9.48;86.11;4.86;13.39;-216.35;-28.37;161.39;10.14;1.54;0.06
2;-148.81;-23.24;8.33;63.52;33.52;-22.2;-12.84;-273.52;-89.51;5.4;-79.41;37.8;-13.78;33.92;-9.14;85.27;4.49;13.86;-235.67;-24.5;141.81;10.38;1.49;-0.37
2;-150.21;-23.04;9.13;60.8;35.47;-20.74;-10.74;-266;-85.55;6.23;-72.55;36.93;-13.67;37.95;-7.94;80.11;4.26;13.68;-226.06;-24.43;119.64;13.12;2.09;-0.16
2;-148.19;-24.42;8.84;60.67;36.71;-19.5;-12.35;-295.3;-85.26;6.09;-81.71;34.89;-13.37;37.5;-11.36;88.74;4.48;12.78;-260.71;-26.67;125.13;11.49;2.16;-0.2
2;-149.76;-23.66;8.67;60.24;36.3;-20.26;-12.92;-313.59;-84.73;7.03;-87.4;37.94;-13.52;37.25;-12.06;89.51;4.69;13.52;-244.75;-26.4;122.41;11.16;2.09;0.16
2;-150.37;-22.95;7.65;68.64;33.43;-19.79;-9.77;-340.84;-84.56;5.52;-72.01;32.97;-13.54;32.35;-13.47;71.95;3.98;12.81;-230.12;-23.95;86.15;9.34;1.88;0.39
2;-145.25;-31.52;8.69;59.61;28.93;-19.8;-7.89;-251.02;-88.34;6.19;-65.23;35.49;-13.29;10.71;1.79;73.25;4.21;13.33;-227.13;-25.92;95.71;12.73;2.21;0.1
2;-148.55;-29.29;8.99;60.88;32.58;-18.28;-9.92;-267.58;-84.62;6.26;-82.5;30.79;-13.56;26.39;-4.82;68.58;4.39;12.08;-210.28;-26.5;72.01;11.51;1.9;0.26
2;-143.48;-26.19;8.25;59.5;36.52;-20.63;-11.19;-269.7;-89.24;6.27;-62.11;36.47;-13.79;33.94;-9.42;81.02;4.3;13.2;-240.18;-24.9;115.45;11.22;1.77;0.14
2;-152.8;-28.06;8.22;64.21;35.96;-18.89;-8.63;-300.43;-83.43;6.81;-76.24;33.6;-13.75;39.73;-5.9;74.23;3.93;12.39;-203.94;-27.18;94.02;9.41;2.02;0.56
2;-148.02;-26.37;7.52;67.65;41.97;-20.41;-11.77;-338.66;-96;8.79;-72.49;37.01;-13.8;48.57;-14.77;84.6;4.64;13.21;-209.42;-24.6;124.6;8.73;1.66;0.45
2;-149.16;-24.65;7.78;62.22;37.2;-18.91;-11.5;-281.08;-86.77;6.27;-84.41;35.6;-13.5;38.98;-10.14;74.97;4.16;12.77;-221.34;-23.61;102.28;11.43;2.3;0.01
2;-147.28;-24.77;7.99;64.05;39.04;-20.27;-9.77;-287.82;-89.54;6.34;-77.12;34.91;-13.43;46.72;-10.12;76.11;4.19;12.9;-203.82;-23.21;104.96;11.52;2.09;0.16
2;-144.39;-26.1;8.39;60.62;34.58;-17.52;-10.07;-260.27;-83.61;6.43;-61.09;35.55;-13.33;34.77;-7.9;69.73;4.08;12.82;-219.09;-25.33;113.89;11.98;1.93;0.01
