label;gyro_z_avg;gyro_x_avg;acc_y_stdev;gyro_z_stdev;gyro_x_stdev;acc_x_min;acc_z_min;gyro_z_min;gyro_x_min;acc_z_max;gyro_z_max;acc_x_max;acc_y_avg;gyro_x_max;gyro_y_avg;gyro_y_stdev;acc_z_stdev;acc_x_stdev;gyro_y_min;acc_y_min;gyro_y_max;acc_y_max;acc_x_avg;acc_z_avg
2;-92.77;5.28;4.76;63.83;23.82;-11.8;-5.56;-222.21;-29.75;4.19;-19.48;28.38;-11.01;46.92;22.35;75.21;2.15;8.33;-249.99;-26.14;93.72;0.68;1.91;-0.45
2;79.45;-25.25;6.13;211.71;44.53;-7.27;-14.37;-330.5;-107.72;4.99;380.21;18.43;-9.6;59.67;-32.44;89.72;4.45;6.73;-172.73;-26.83;148.61;-1.4;5.76;-1.52
2;-95.67;7.05;5.22;65.9;24;-8.47;-7.22;-245.47;-27.63;9.83;-16.82;19.65;-11.56;44.75;29.11;59.02;3.05;7.91;-174.87;-24.62;93.06;-1.18;1.88;-0.38
2;94.43;-39.51;5.78;219.17;51.71;-4.07;-16.78;-342.04;-144.48;7.02;386.8;14.97;-8.95;40.58;-30.96;109.08;5.17;5.82;-178.11;-27.65;221.98;-1.58;6.73;-0.53
2;-99.75;14.29;5.55;79.86;32.55;-14.47;-5.03;-239.12;-23.37;10.68;-20.09;20.98;-11.03;62.38;26.08;74.98;3.18;9.46;-141.58;-20.14;124.28;0.5;2.36;-0.49
2;87.23;-47.36;7.06;231.61;46.24;-2.84;-8.76;-332.01;-156.52;7.21;396.08;15.31;-9.76;3.12;-28.89;89.95;3.57;5.16;-189.47;-29.74;166;0.34;5.68;-0.09
2;-109.24;11.06;6.28;74.16;29.62;-14.84;-5.25;-261;-31.97;2.33;-29.28;33.13;-11.41;57.58;30.73;75.03;1.52;12.11;-194.33;-23.96;141.34;3.83;2.34;-1.39
2;101.38;-47.08;5;238.29;47.01;-3.79;-13.73;-408.93;-132.18;4.31;391.52;19.12;-9.83;18.06;-23.97;95.52;4;4.8;-201.02;-30.77;103.58;-4.74;6.34;-0.38
2;-131.56;11.2;8.09;88.16;26.35;-14.18;-3.74;-288.32;-23.11;4.89;-29.98;37.84;-11.95;52.68;39.4;122.95;2.88;13.03;-178.2;-27.61;327.76;10.9;2.93;-0.51
2;119.68;-41.01;6.84;253.76;46.8;-11.06;-15.16;-389.03;-145.27;6.22;442.63;21.44;-9.12;37.06;-37.94;92.88;4.72;8.32;-192.95;-27.99;198.97;0.02;7.03;-0.41
2;-113.91;15.67;6.7;92.4;33.4;-12.79;-3.08;-284.24;-27.92;8.64;-19.6;34.46;-11.32;67.05;1.25;92.83;3.43;12.42;-193.88;-22.29;137.24;4.53;1.85;-0.11
2;105.03;-40.92;7.34;261.5;41.83;-15.58;-16.51;-409.61;-130.56;6.86;448.55;25.72;-10.69;9.11;1.58;96.04;5.3;8.81;-188.39;-31.93;112.21;-1.12;7.19;-0.94
2;-113.88;13.57;8.65;81.93;30.43;-15.93;-4.12;-269.46;-26.84;5.19;-12.78;40.26;-11.22;62.91;17.99;95.57;2.86;14.48;-260.95;-27.76;150.26;10.37;1.5;-0.53
2;99.53;-35.79;6.82;243.25;47.08;-7.21;-15.04;-369.29;-141.83;7.18;420.04;22.88;-10.52;13.34;-25.46;111.99;5.02;8.13;-218.07;-33.83;170.6;-1.68;6.43;-0.81
2;-116.1;6.32;9.01;82.36;30.75;-21.65;-3.35;-302.92;-35.83;2.94;-19.88;37.77;-11.47;48.48;33.36;86.95;1.75;14.21;-229.66;-28.57;158.23;12.99;1.54;-0.83
2;101.25;-35.73;7.02;245.96;42.54;-8.15;-8.11;-357.36;-137.58;6.27;435;18.74;-10.21;25.87;-13.73;106.38;3.39;6.71;-239.44;-32.01;159.88;-1.17;6.29;-0.1
2;-122.95;17.13;8.95;84.09;24.86;-20.41;-6.14;-287.44;-22.61;3.63;-13.92;41.11;-11.19;58.59;25.91;89.66;1.94;14.45;-215.04;-28.48;207.36;13.62;1.3;-1.41
2;102.55;-37.88;7.95;245.44;49.45;-9.87;-15.15;-328.01;-151.18;6;440.73;22.3;-10.6;34.39;-38.93;108.69;4.93;9.24;-216.81;-36.05;207.7;0.07;6.58;-0.5
2;-124.16;3.92;9.79;75.54;27.05;-20.3;-4.93;-279.86;-37.33;2.36;-37.81;37.06;-11.55;49.9;29.67;94.03;1.82;14.41;-240.16;-29.47;140.03;12.79;0.58;-1.03
2;97.89;-38.86;6.79;253.88;49.55;-7.49;-14.97;-380.88;-141.54;5.55;434.39;23.09;-10.27;16.05;-34.48;110.92;5.01;8.72;-236.97;-29.6;134.45;-1.93;6.72;-0.42
2;-127.31;0.08;8.26;82.83;27.64;-20.55;-6.51;-260.73;-37.39;4.91;-18.2;37.32;-11.93;53.95;22.71;99.35;2.58;14.25;-220.25;-28.09;169.17;8.27;1.18;-0.8
2;112.52;-50.05;6.82;254.21;43.97;-3.37;-7.12;-346.64;-142.26;6.14;449.07;16.99;-9.39;0.13;-22.14;93.2;3.67;6.16;-163.03;-30.93;200.82;-1.71;6.61;0.52
2;-136.71;1.43;8.21;79.91;24.11;-21.03;-8.92;-282.79;-45.24;2.83;-42.27;37.34;-12.8;44.42;28.56;93.35;2.42;14.67;-230.62;-28.39;151.69;7.35;1.26;-1.27
2;114.47;-46.28;6.89;252.17;43.03;-3.55;-9.39;-319.1;-131.22;7.27;455.56;14.61;-9.29;16.71;-28.67;99.05;3.41;6.2;-201.41;-29.35;144.8;-1.13;6.27;-0.03
2;-128.59;6.15;7.7;84.61;29.92;-20.94;-5.35;-275.66;-42.51;5.85;-37.29;40.12;-12.31;51.54;30.44;94.19;2.62;14.9;-245.31;-26.83;128.92;5.73;1.12;-1.12
2;112.55;-41.85;7.55;258.4;48.55;-8.08;-8.94;-373.6;-145.99;7.17;461.22;18.6;-9.94;19.41;-27.01;101;3.91;7.31;-208.98;-30.21;109.17;-0.72;6.83;0.18
2;-132.2;1.69;8.91;75.82;28.85;-19.63;-9.27;-269.47;-52.95;4.37;-52.77;40.42;-12.24;49.39;14.13;95.07;2.8;15.19;-234.67;-29.01;154.04;14.82;0.91;-1.15
2;109.58;-34.01;7.76;270.69;44.31;-3.84;-11.26;-306.62;-117.74;8.6;487.47;20.22;-9.59;24.27;-13.86;89.25;4.83;6.9;-173.56;-29.93;143.79;0.64;6.71;-0.27
2;-130.59;1.14;7.59;75.85;27.38;-22.2;-4.41;-284.79;-36.46;2.94;-44.71;33.84;-12.77;48.91;30.52;100.82;2.11;14.66;-251.09;-25.62;174.72;5.95;1;-1.04
2;113.35;-36.67;7.23;248.97;37.14;-5.29;-6.59;-327.89;-114.92;6.34;445.01;15.31;-9.2;23.58;-23.59;62.89;3.27;5.26;-133.93;-32.36;61.25;-0.99;7.1;-0.06
2;-131.05;2.6;8;78.29;29.36;-17.45;-8.5;-276.14;-45.61;3.35;-50.07;39.82;-12.36;45.15;30.54;94.16;2.55;14.16;-261.33;-25.91;119.09;9.29;1.05;-1.31
2;124.98;-31.9;6.37;250.74;35.74;-1.63;-10.62;-352.63;-107.54;5.74;447.74;17.32;-9.3;21.01;-31.74;79.81;4.33;6.21;-201.21;-28.33;95.91;-0.24;8.02;-0.28
2;-129.34;1.99;7.33;83.65;29.82;-18.56;-6.99;-286.89;-37.65;3.91;-48.8;39.43;-12.64;47.12;33.9;93.37;2.35;14.26;-242.43;-26.14;155.92;6.94;0.65;-1.11
2;116.78;-34.27;7.67;249.45;38.38;-4.81;-6.86;-301.21;-119.07;9.15;450.63;18.9;-9.13;16.44;-19.78;87.64;3.6;6.68;-164.03;-31.46;173.85;1.87;7.7;-0.26
2;-143.05;7.84;7.69;67.71;24.08;-26.69;-8.51;-257.52;-40.69;7.13;-49.22;39.01;-13.69;45.74;32.4;93.58;2.98;15.56;-224.52;-28.55;139.45;7.59;-0.4;-1.69
2;114.01;-30.21;8.28;264.86;34.28;-10.98;-8.93;-299.57;-83.6;5.38;460.14;21.16;-9.2;29.93;-28.3;89.93;3.25;7.82;-209.42;-31.62;137.99;1.99;6.44;-0.01
2;-129.31;2.91;9.44;76.3;27.04;-24.49;-11.36;-288.21;-43.44;4.97;-39.2;38.71;-12.16;46.21;38.64;104.97;2.98;15.89;-278.79;-26.88;179.57;18.47;1.19;-1.54
2;116.21;-32.72;6.47;242.76;38.76;-3.76;-8.75;-279.05;-108.49;4.11;435.33;16.51;-8.92;32.6;-31.77;70.35;3.43;5.83;-192.71;-29.22;139.64;-1.65;7.3;-0.3
2;-130.43;7.67;8.6;72.96;28.33;-22.37;-8.91;-258.08;-35.39;4.51;-40.06;38.32;-12.89;52.99;36.78;93.5;2.72;14.59;-220.01;-31.51;147.53;10.08;0.53;-1.61
2;108.3;-32.89;5.05;250.3;51.5;-5.09;-9.15;-397.01;-134.04;6.36;433.45;26.25;-9.86;45.46;-38.92;78.06;4.21;8.08;-184.95;-24.46;84.1;-2.02;8.49;-0.07
2;-123.17;5.88;7.44;84.31;26.42;-18.37;-4.36;-274.13;-32.68;3.16;-21.85;30.59;-12.46;54.53;26.84;74.65;2.38;13.61;-147.08;-27.78;126.56;4.35;0.83;-1.13
2;101.93;-53.15;7.58;262.74;51.5;-1.83;-13.17;-340.15;-160.7;6.27;459.51;17.58;-9.41;15.89;-28.94;111.55;4.19;6.41;-187.37;-35.76;150.87;-0.45;6.68;0.35
2;-133.3;8.21;8.91;75.13;25.37;-18.73;-5.52;-293.9;-30.05;3.42;-46.14;38.66;-12.36;50.41;20.48;94.2;1.75;14.59;-227.79;-28.33;131.96;11.2;1.37;-1.16
2;119.7;-27.93;6.57;257.99;48.87;-1.45;-13.49;-386.55;-109.8;6.57;450.8;23.56;-9.63;45.2;-26.44;75.08;5.66;7.61;-159.15;-31.04;99.98;-1.17;8.36;-0.12
2;-119.65;1.1;7.36;89.5;27.33;-19.63;-5.29;-258.15;-35.07;3.72;-15.3;31.85;-11.89;49.04;21.09;75.97;1.94;13.08;-185.65;-24.84;113.05;3;0.51;-0.94
2;112.44;-36.7;7.65;262.78;48.47;-9.5;-19.58;-365.77;-136.87;7.17;462.39;25.74;-10.63;37.71;-31.02;134.3;6.48;8.97;-269.64;-33.43;160.79;0.09;7.77;-0.4
2;-129.27;-6.15;8.92;87.09;29.91;-22.54;-6.38;-267.4;-50.63;3.58;-33.15;33.44;-12.21;54.2;24.8;100.91;3.71;14.91;-268.28;-25.35;157.75;12.79;0.67;-1.07
2;117.51;-47.64;8.29;261.15;49.33;-5.22;-11.13;-373.16;-139.12;10.05;463.44;26.84;-10.02;39.1;-16.84;120.19;3.98;7.97;-314.89;-32.6;155.15;-0.52;7.18;0.61
2;-134.1;14.46;9.14;78.54;31.53;-25.06;-6.1;-259.29;-47.47;5.64;-46.29;38.37;-12.44;78.96;19.71;100.54;3;16.09;-236.24;-26.6;140.97;16.33;0.15;-1.1
2;109.83;-45.26;7.64;256.75;46.96;-3.2;-11.6;-287.2;-123.94;8.12;459.76;20.34;-8.58;22.16;-22.35;110.02;4.02;6.63;-244.11;-29.72;166.15;3.07;7.4;0.01
2;-137.8;5.86;8.19;75.48;25.22;-26.61;-9.01;-259.15;-32.65;5.6;-35.37;34.54;-13.27;58.62;19.46;111.98;2.94;15.37;-224.81;-28.34;153.67;8.9;0.28;-1.32
2;129.14;-22.45;7.8;266.33;40.41;-14.3;-15.03;-399.65;-107;6.49;459.75;21.89;-9.95;39.67;-22.74;65.92;5.3;7.08;-113.34;-35.34;127.12;1.59;7.77;-0.29
2;-125.65;0.17;10.39;84.64;26.43;-22.58;-10.16;-264.13;-53.11;4.15;-24.71;40.48;-11.84;70.76;29.52;100.68;3.29;15.43;-300.76;-26.12;170.38;21.14;0.69;-1.28
2;123.37;-49.67;8.11;252.46;57.38;-12.47;-6.8;-370.56;-161.11;14.73;442.35;22.6;-9.45;32.12;-17.95;81.33;3.75;8.58;-171.87;-36.09;101.9;0.18;7.37;1.06
2;-143.09;16.14;9.65;84.38;26.07;-22.6;-11.8;-270.93;-46.7;11.1;-49.4;38.91;-12.62;71.13;0.75;93.15;3.68;15.41;-223.41;-27.39;121.75;18.11;0.31;-1.11
2;119.58;-56.92;7.67;262.92;53.9;-3.25;-9.3;-304.59;-173.78;5.1;481.47;18.56;-9.37;18.08;-14.7;117.04;3.44;6.2;-294.2;-32.34;112.8;1.41;6.64;0.21
2;-142.04;13.57;8.72;75.59;24.23;-21.66;-5.37;-306.02;-26.45;3.81;-58.9;41.27;-12.47;50.13;21.38;82.6;2.19;15.71;-184.72;-27.86;98.71;11.61;1.61;-1.06
2;111.59;-45.63;8.28;260.74;49.99;-4.62;-9.31;-389.44;-157.18;6.54;457.07;22.58;-9.55;19.71;-21.63;101.73;3.89;7.75;-200.73;-27.34;152;2.99;7.55;-0.03
2;-129.13;9.75;8.19;86.41;25.89;-17.75;-5.15;-268.13;-29.82;3.25;-40.53;37.16;-12.38;53.19;25.95;77.68;2.2;14.43;-157.7;-29.21;122.71;6.06;0.95;-1.26
2;118.67;-34.33;7.65;269.65;47.91;-5.19;-12.33;-390.79;-133.51;7.42;476.61;27.62;-10.37;24.2;-34.39;101.66;4.98;8.33;-209.71;-32.05;131.12;-0.76;7.51;-0.06
2;-134.9;-2.47;9.88;83.03;28.01;-22.43;-7.86;-266.37;-50.56;6.67;-46.08;39.02;-12.32;47.15;21;93.06;3.5;15.45;-222.55;-29.82;143.87;19.2;1.1;-1.13
2;112.2;-28.27;7.33;272.67;48.54;-4.64;-17.92;-348.62;-120.4;7.87;487.82;22.48;-9.72;36.58;-32.02;79.97;5.89;7.88;-177.63;-30.39;127.81;-0.32;7.94;-0.42
2;-133.42;-14.7;8.6;80.84;21.09;-21.91;-6.44;-256.83;-50.68;5.25;-38.51;34.87;-12.97;23.53;64.27;109.4;3.6;14.98;-256.47;-30.31;181.55;10.47;0.6;-1.65
2;135.45;-10.38;7.46;264.44;34.4;-16.48;-7.94;-365.99;-61.86;6.6;478.74;23.54;-9.83;43.15;-32.63;97.97;4.15;8.67;-143.83;-32.4;260.45;-1.38;7.69;0.05
2;-143.57;6.34;9.59;89.99;23.82;-22.7;-9.77;-276.78;-43.9;5.93;-45.01;40.8;-12.49;44.36;13.81;107.96;3.12;15.9;-284.83;-29.18;197.97;18.06;1.11;-1.12
2;119.96;-45.2;6.89;257.9;54.84;-4.7;-10.48;-324.65;-159.15;7.76;459.69;19.46;-8.93;39.6;-21.12;114.84;4.18;6.98;-205.08;-24.36;216.47;1.56;7.26;0.23
2;-143.19;11.61;8.97;85.21;26.49;-25.42;-5.36;-278.68;-21.95;4.75;-35.95;38.13;-13.45;61.58;15.35;93.95;2.73;16.25;-206.13;-29.1;152.12;8.45;0.53;-1.4
2;122.95;-30.48;7.35;276.35;45.36;-2.04;-11.72;-354.21;-113.75;6.08;498.75;18.65;-9.31;34.66;-26.68;75.95;3.9;5.29;-195.74;-27.99;71.1;0.76;8.26;-0.08
2;-140.31;-4.87;9.26;82.23;25.61;-27.86;-6.36;-257.49;-41.7;4.22;-33.4;37.46;-12.61;53.32;38.48;116.56;2.87;16.57;-192.08;-30.78;244.08;10.73;0.81;-1.61
2;125.71;-17.5;6.62;261.16;34.58;-7.08;-11.14;-395.76;-99.28;4.88;476.88;23.26;-9.98;38.57;-20.74;92.89;3.29;7.54;-179.56;-31.92;256.45;0.66;8.08;-0.55
2;-140.49;5.79;8.91;86.31;23.41;-21.09;-8.4;-291.07;-41.03;4.98;-47.82;35.85;-12.83;48.95;9.71;86.68;2.98;15.41;-241.56;-28.97;125.51;14.48;0.58;-0.99
2;121.53;-47.11;7.79;277.13;55.72;-3.41;-10.51;-312.29;-162.9;6.01;502.08;21.65;-8.79;28.04;-10.75;90;4.22;7.58;-193.66;-28.46;135.9;3.42;7.78;-0.09
2;-137.35;4.57;8.98;81.9;25.1;-23.07;-8.14;-284.23;-31.49;4.65;-30.67;33.93;-13.43;56.31;22.71;103.25;2.82;15.16;-213.4;-31.02;193.53;7.16;0.74;-1.34
2;126.65;-37.03;5.58;251.16;51.07;-9.17;-7.7;-350.99;-143.83;5.94;451.75;22.35;-8.91;44.56;-8.83;81.26;3.92;8.29;-159.08;-23.42;192.43;0.7;8.33;0.34
2;-132.09;15.5;8.03;82.93;29.56;-18.99;-5.88;-269.45;-31.84;4.46;-44.13;38.69;-13.04;73.84;13.98;91.51;2.63;15.18;-205.71;-30.94;171.09;4.67;0.17;-1.29
2;115.89;-39.73;7.56;271.93;44.34;-6.79;-10;-372.68;-129.63;7.7;479.26;17.34;-10.38;33.58;-16.78;97.48;4.06;6.75;-197.35;-31.22;196.34;0.49;6.95;0.27
2;-138.81;6.77;9.97;81.49;28.71;-24.08;-8.5;-279.33;-31.81;4.2;-45.79;39.77;-12.12;63.57;20.85;102.66;3.13;15.85;-198.43;-30.45;197.7;18.13;1.32;-1.86
2;120.06;-50.19;7.99;257.35;58.03;-12.36;-12.01;-370.34;-146.88;8.37;441.03;29.62;-9.61;22.22;-20.33;141.76;4.81;8.2;-227.51;-29.71;245.16;3.12;7.33;0.67
2;-134.62;4.79;8.64;77.07;26.98;-24.54;-6.17;-255.21;-37.43;5.93;-51.27;41.23;-12.56;52.02;13.41;114.23;3.42;16.68;-308.66;-28.27;224.82;10.99;0.47;-1.14
2;125.34;-30.95;7.16;255.3;29.15;-6.83;-7.83;-369.59;-96.92;6.26;458.99;19.06;-9.97;24.16;-15.3;113.09;3.8;7.27;-210.1;-31.93;238.16;0.97;7.85;-0.28
2;-133.26;5.75;9.92;83.45;30.19;-22.77;-10.67;-285.96;-55.93;7.08;-43.62;40.03;-12.51;55.69;11.59;88.71;3.65;15.79;-228.75;-29.95;160.44;16.66;0.43;-1.58
2;124.34;-32.98;7.56;260.08;52.7;-7;-13.18;-365.44;-146.04;6.9;462.16;18.05;-10.22;56.4;-14.33;96.37;4.74;7.59;-149.97;-33.46;224.83;0.91;7.76;-0.2
2;-140.61;0.07;9.83;97.9;29.68;-31.37;-7.45;-282.98;-56.25;5.07;-15.86;37.42;-13.25;51.66;17.6;105.04;3.39;17.38;-246.23;-29.39;173.45;15.8;-0.08;-1.2
2;131.17;-30.65;9.08;281.59;47.98;-10.04;-8.04;-348.11;-141.07;9.39;499.55;19.2;-8.94;35.6;-7.27;80.45;4.31;7.84;-120.22;-32.37;154.32;5.19;7.77;-0.19
2;-137.14;6.07;9.42;86.02;28.16;-25.42;-11.48;-269.01;-64.04;5.18;-31.27;38.74;-12.62;48.77;17.68;91.93;3.26;15.9;-259.21;-27.53;119.4;15.76;0.22;-1.5
2;125.83;-41.79;8.89;273.51;57.7;-11.55;-11.62;-352.37;-159.93;10.51;482.76;21.47;-9.3;47.27;-23.4;81.63;4.92;8.59;-176.15;-34.88;130.25;2.33;7.68;-0.03
2;-146.82;4.11;10.75;88.22;34.23;-31.15;-10.49;-273.21;-67.35;7.77;-39.33;39.63;-13.01;56.1;23.66;106.51;4.06;17.15;-237.88;-30.05;196.48;21.19;0.13;-1.52
2;101.33;-37.99;9.1;291.27;43.03;-16.06;-10.66;-336;-123.07;9.83;501.58;19.3;-9.05;56.21;-21.64;100.08;3.81;8.62;-232.41;-34.91;154.5;15.3;7.36;0.17
2;-141.34;13.36;9.43;73.82;28.26;-23.13;-10.25;-273.32;-37.44;1.96;-35.12;43.48;-13.61;61.46;28.76;73.59;2.9;16.92;-181.32;-30.59;127.82;19.11;-0.09;-2.38
2;155.92;-14.84;8.93;278.13;41.83;-11.16;-10.17;-402.71;-90.66;5.56;479.99;25.13;-9.23;45.22;-22.48;117.84;4.07;8.08;-244.94;-34.57;153.71;3.21;9.1;-0.23
2;-136.11;-6.85;11.69;90.37;27.39;-29.7;-16.64;-276.72;-70.92;8.88;-31.76;43.71;-12.94;37.54;36.9;107.38;4.86;17.96;-277.54;-30.92;185.93;23.21;0.12;-1.69
2;118.93;-38.51;7.17;276.98;44.16;-6.77;-8.37;-374.34;-127.33;5.08;480.21;20.47;-8.98;30.09;-31.65;88.09;3.71;7.81;-175.26;-24.83;197.84;2.17;7.29;-0.04
2;-149.91;0.86;9.76;94.54;24.35;-29.28;-9.49;-305.24;-56.62;10.53;-33.73;39.37;-13.53;48.37;26.12;100.24;4.6;16.98;-208.08;-30.82;177.31;13.85;-0.22;-1.39
2;112.59;-41.94;8.39;286.34;54.52;-4.61;-13.31;-320.35;-157.39;5.62;504.44;18.93;-9.32;43.51;-27.88;100.27;4.19;7.14;-198.51;-32.91;156.99;0.99;7.37;0.16
2;-144.75;1.32;10.39;85.9;26.83;-27.13;-6.78;-302.11;-36.76;4.13;-40.28;36.26;-12.81;51.71;36.38;103.14;2.77;17.17;-173;-33.08;244.2;12.64;1.02;-1.37
2;132.7;-36.04;7.39;269.64;53.86;-9.85;-9.59;-369.93;-148.09;6.63;476.81;19.49;-9.4;61.87;-32.42;89.05;4.29;8.01;-173.05;-33.39;229.23;2.13;8.22;0.08
2;-135.31;-6.88;12.17;86.69;29.81;-28.77;-9.48;-299.71;-72.69;4.74;-21.52;38.94;-12.62;44.16;29.34;115.91;3.28;18.25;-239.33;-34.71;225.17;19.69;0.32;-1.51
2;108.99;-20.57;7.39;272.63;33.18;-9.37;-9.41;-359.24;-92.94;5.32;483.56;19.84;-10.36;31.3;-13.71;123.27;3.67;6.99;-197.31;-30.03;317.69;-0.43;6.62;-0.33
2;-157.82;7.62;10.27;93.57;20.75;-25.83;-6.84;-306.46;-32.94;4.43;-39.89;37.68;-12.81;43.96;31.01;80.92;2.73;16.67;-178.63;-32.36;168.55;13.96;0.59;-1.25
2;150.09;-49.81;7.36;273.93;48.23;-5.3;-12.88;-359.35;-150.65;6.2;502.6;23.33;-9.02;9.86;-40.03;104.47;4.34;8.76;-233.25;-28.56;142.75;4.73;8.69;-0.14
2;-139.14;2.66;9.23;94.96;32.49;-24.39;-6.85;-283.33;-41.28;7.53;-21.85;37.99;-13.17;66.1;28.27;91.04;3.54;16.28;-204.37;-31.2;168.57;9.23;0.49;-1.43
2;115.13;-37.01;7.11;280.4;48.15;-10.26;-14.25;-353.32;-136.67;6.11;492.21;20.46;-10.56;33.37;-22.31;76.55;4.26;8.03;-169.67;-32.49;129.32;-2.26;7.22;0.04
2;-155.05;8.45;10.31;92.29;28.11;-25.25;-6.91;-309.06;-46.55;5.64;-48.45;37.21;-12.46;61.88;20.19;89.19;2.96;16.27;-209.83;-29.17;160.3;19.46;0.54;-1.36
2;123.34;-43.7;7.41;270.2;63.71;-3.75;-13.05;-361.53;-180.69;6.51;472.3;32.88;-9.2;21.59;-31.22;114.44;4.89;9.4;-294.17;-23.3;137.85;3.37;8.82;-0.29
2;-147.25;-0.85;8.01;90;24.7;-27.54;-6.28;-284.05;-41.34;6.48;-30.78;27.81;-13.77;53.05;45.72;102.21;3.34;15.57;-115.33;-30.48;253.73;-2.22;0.57;-1.38
2;137.44;-23.5;7.73;280.58;37.46;-10.84;-14.13;-377.93;-91.82;6.95;502.97;19.79;-9.52;37.2;-38.45;64.24;4.98;7.56;-123.96;-34.34;173.17;-0.62;8.48;0.2
2;-147.13;-1.11;10.77;92.51;25.51;-28.21;-8.29;-286.05;-47.62;6.3;-30.57;41.84;-12.71;45.98;34.73;96.54;3.6;17.31;-241.15;-33.43;163.68;20.35;-0.01;-1.95
2;135.35;-34.86;8.53;283.03;50.25;-7;-10.63;-365.31;-142.64;7.71;502.03;20.01;-9.23;42.13;-18.33;63.12;4.15;7.7;-119.25;-32.77;89.06;3.2;8.47;0.63
2;-143.44;10.73;11.88;92.51;24.83;-34.67;-5.76;-317.67;-35.32;7.14;-20.08;39.57;-12.86;62.64;10.96;121.43;3.19;18.33;-262.45;-31.26;236.4;19.3;0.44;-1.58
2;110.08;-27.91;8.13;273.43;29.64;-7.33;-10.94;-351.6;-78.33;5.19;483.52;18.71;-10.05;27.89;-18.34;116.83;3.53;7.21;-195.23;-34.71;276.8;-1.15;7.31;-0.25
2;-146.56;8.93;10.79;95.73;27.72;-25.93;-5.79;-304.49;-33.55;4.17;-18.39;40.09;-12.49;60.38;30.43;97.6;2.79;16.41;-225.05;-31.3;172.21;18.2;1.37;-1.43
2;134.89;-39.56;7.63;275.12;41;-3.83;-11.26;-431.73;-128.15;6.19;489.78;27.14;-9.12;6.38;-22.83;87.64;4.31;7.67;-204.58;-29.06;156.65;3.29;9.08;-0.4
2;-135.48;13.73;10.12;102.12;33.05;-27.93;-7.04;-287.34;-30.69;7.69;-20.96;39.95;-12.84;65.25;14.68;94.49;3.72;17.27;-209.82;-30.23;155.98;14.36;0.43;-1.15
2;124.11;-40.12;9.14;290.33;46.16;-10.18;-12;-327.04;-128.56;6.09;502.68;19.89;-9.94;36.65;-25.1;120.08;4.48;8.69;-205.88;-30.79;213.67;3.61;7.24;0
2;-148.26;-1.98;10.87;92.58;21.35;-31.07;-7.7;-311.76;-45.44;6.53;-33.2;40.26;-12.82;28.35;33.8;116.14;3.44;18.32;-241.22;-30;229;19.13;0.61;-1.73
2;151.28;-33.97;7.74;272.93;57.31;-13.63;-13.21;-257.92;-160.74;5.59;502.37;23.25;-7.7;50.84;-21.35;80.28;4.15;9.16;-153.38;-17.5;199.33;4.29;7.98;0.6
2;-151.7;-1.74;11.86;112.28;33.14;-37.4;-15.33;-330.34;-81.49;3.97;13.93;32.59;-13.63;53.16;17.28;120.66;4.29;19.01;-181.29;-32.86;273.27;17.32;0.37;-2.09
2;102.89;-35.9;7.92;282.08;42.05;-7.31;-14.28;-350.12;-116.46;8.54;487.89;21.26;-9.78;50.05;-12.47;99.26;3.89;8.73;-192.09;-32.29;169.19;1.07;7.23;-0.3
2;-136.87;14.42;10.16;82.74;23.51;-29.2;-5.74;-286.1;-35.8;4.57;-36.61;41.13;-12.43;55.63;36.73;96.9;2.44;17.44;-224.6;-29.53;177.09;16.64;0.19;-1.49
2;99.14;-29.93;8.88;282.22;40.78;-14.71;-10.61;-294;-111.22;4.45;501.4;35.32;-9.13;38.37;-49.94;100.87;3.52;9.63;-241.56;-30.53;189.33;6.62;8.68;-0.61
2;-152.83;0.28;9.09;91.72;25.22;-40.94;-7.36;-292.82;-47.81;5.69;-13.25;37.94;-15.23;46.46;73.16;83.16;3.4;18.86;-61.56;-31.47;257.28;9.48;-2.67;-2.21
2;152.26;-29.14;9.11;291.04;46.06;-12.95;-9.3;-346.94;-120.23;5.17;503.24;19.21;-8.94;56.7;-34.75;51.28;4.16;7.46;-163.34;-34.41;37.16;5.65;7.92;0.64
2;-150.51;6.11;12.29;99.34;32.91;-32.94;-9.18;-296.3;-59.64;5.9;-30.36;41.5;-12.83;59.19;14.29;115.07;3.98;19.05;-280.04;-29.98;159.95;27.65;0.42;-1.57
2;115.83;-54.69;7.83;273.63;58.06;-10.15;-5.95;-322.59;-176.2;6.59;485.26;24.03;-9.24;25.32;-4.34;104.05;3.01;9.29;-168.7;-30.28;142.88;3.73;6.8;0.45
2;-152.62;13.04;10.28;86.83;21.85;-30.12;-6.97;-309.28;-26.02;3.35;-44.34;40.65;-13.42;51.42;26.37;95.39;2.87;18.01;-241.75;-30.5;143.54;16.47;0.02;-1.74
2;112.87;-26.71;8.32;284.03;45.49;-10.71;-8.75;-346.3;-109.84;5.54;499.97;16.44;-9.03;58.19;-32;79.95;3.52;7.74;-216.28;-35.34;143.37;2.67;7.18;-0.01
2;-135.9;-1.73;11.5;87.46;31.38;-30.35;-7.23;-276.45;-55.67;4.55;-13.62;39.74;-13.02;59.41;59.71;84.01;3.22;18.19;-218.87;-30.24;142.89;22.34;-0.28;-2.54
2;123.59;-41.83;8.51;267.98;43.41;-11.02;-7.85;-335.95;-127.63;5;471.96;18.83;-9.73;59.74;-31.18;77.73;3.12;7.96;-169.44;-35.47;119.99;-0.08;7.4;0.95
2;-144.54;15.98;11.36;87.94;23.96;-31.66;-5.57;-287.88;-28.82;2.94;-32.67;40.93;-12.8;60.51;18.68;100.86;2.31;18.38;-246.22;-29.78;144.63;21.11;0;-1.79
2;123.62;-29.01;8.49;278.79;44.19;-10.03;-9.99;-362.28;-120.35;4.31;494.43;20.15;-9.64;38.03;-32.1;75.95;4.05;8;-133.06;-33.38;167.19;4;7.71;-0.15
2;-141.54;-2.36;11.01;89.47;26.31;-35.74;-10.23;-272.73;-63.76;6.88;-23.88;40.05;-12.57;46.27;40.62;105.4;3.75;18.35;-237.71;-31.84;221.7;19.16;-0.04;-1.9
2;129.46;-39.17;7.78;276.89;49.69;-11.04;-15.11;-378.7;-142.86;6.53;495.16;22.56;-9.99;34.41;-29.66;91.45;4.95;9.16;-173.86;-35.38;207.82;1.9;8.32;0.35
2;-141.4;10.3;11.5;100.23;31.36;-31.16;-6.34;-302.48;-39.17;5.75;-15.9;40.71;-12.03;63.44;11.63;111.64;4.07;17.73;-235.32;-30.96;183.15;20.6;0.19;-1.41
2;120.26;-30.77;8.59;280.42;46.28;-8.48;-11.04;-374.73;-123.99;7.01;487.15;19.95;-10.16;39.19;-21.12;94.23;4.26;8.04;-136.49;-32.31;230.34;2.15;8.42;-0.24
2;-142.21;-0.5;10.62;88.1;23.7;-31.01;-7.09;-273.91;-32.94;3.99;-24.7;39.59;-12.87;49.87;26.85;94.07;2.78;17.79;-203.21;-32.19;170.53;17.76;0.48;-1.58
2;115.48;-20.48;8.25;287.66;33.57;-6.66;-10.15;-328.59;-92.73;4.27;502.4;18.26;-10.09;25.63;-24.82;100.89;3.9;7.31;-180.77;-34.73;198.28;2.56;7.75;-0.48
2;-143.64;0.36;10.91;90.11;23.82;-29;-7.48;-280.37;-46.31;6.44;-27.52;42.68;-12.88;42.53;40.89;97.33;3.22;18.38;-224.41;-33.25;178.78;18.47;0.26;-1.7
2;117.61;-37.91;8.2;277.47;60.83;-8.43;-14.93;-325.87;-172.56;5.98;494.35;22.6;-9.84;41.29;-30.22;83.91;4.6;8.11;-159.5;-34.26;133.21;3.01;7.57;-0.12
2;-141.66;0.56;11.22;86.79;24.6;-33.58;-8.21;-278.39;-35.55;7.04;-28.27;42.38;-13.16;48.01;47.69;111.17;3.8;19.3;-228.12;-30.79;224.41;21.33;0.6;-1.58
2;115.73;-29.14;7.46;276.13;46.13;-15.07;-8.98;-305.13;-119.28;4.75;494.71;23.07;-9.17;58.23;-38.38;84.9;3.46;9.46;-227.63;-30.78;182.16;1.78;7.18;-0.55
2;-139.38;0.31;10.97;91.12;23.06;-38;-9.19;-279.6;-42.28;9.2;-7.03;41.01;-12.49;49.1;37.25;126.24;4.08;19.88;-263.12;-30.95;287.45;17.75;-0.46;-1.9
2;103.92;-15.76;9.64;284.03;47.39;-8.73;-16.43;-310.48;-114.05;6.33;501.64;23.52;-9.1;71.15;-25.37;91.9;4.97;8.22;-167.92;-35.58;193.19;6.57;8.41;-0.38
2;-140.66;2.83;11.39;85.67;28.59;-41.19;-7.01;-264.8;-54.26;3.02;-13.54;32.75;-13.3;48.92;57.3;105.21;3.03;18.96;-153.77;-32.54;248.33;17.76;-1.1;-2.49
2;150.24;-11.49;8.96;288.88;33.47;-11.24;-10.19;-375.22;-77.72;7.59;502.69;22.11;-9.93;43.53;-32.05;79.83;3.93;7.28;-184.4;-33.85;121.53;3.9;9.33;-0.13
2;-152.95;1.89;13;109.44;32.21;-36.33;-13.25;-327.49;-59.01;6.15;-26.74;40.28;-13.31;73.14;6.96;92.63;4.41;19.43;-248.48;-32.93;116.42;23.13;0.73;-1.81
2;108.82;-38.01;9.26;302.12;50.41;-9.91;-11.66;-346.79;-145.34;6.11;502.28;19.16;-9.39;57.78;-8.75;97.64;3.84;7.09;-195.73;-32.32;180.76;5.08;6.65;0.61
2;-152.5;9.28;12.09;98.01;22.38;-30.29;-6.26;-314.45;-33.15;3.9;-20.91;41.97;-12.32;52.01;24.57;92.67;2.72;18.29;-242.91;-32.61;123.52;24.45;-0.17;-1.98
2;134.77;-41.21;8.61;283.73;61.11;-4.55;-11.1;-332.52;-168.88;5.8;501.9;25.78;-9.23;35.03;-26.8;92.16;3.82;8.54;-191.22;-33.13;177.27;4.73;8.77;0.42
2;-147.95;4.09;10.57;83.95;21.1;-29.15;-7.14;-286.43;-29.94;2.84;-41.27;37.67;-13.69;48.57;35.2;91.27;2.9;18.55;-193.33;-32.14;175.53;16.09;-0.05;-1.63
2;122.13;-38.19;8.27;280.29;51.44;-7.96;-8.42;-349.9;-147.67;4.6;492.99;20.2;-9.47;50.62;-20.72;88.6;3.28;7.61;-160.58;-31.96;191.13;2.16;6.87;0.14
2;-145.71;2.9;10.97;90.22;24;-25.38;-6.05;-316.91;-31.94;2.92;-41.48;39.42;-12.82;52.89;21.22;103.02;2.53;17.16;-210.41;-31.36;206.32;17.95;0.78;-1.26
2;124.3;-28.72;9.11;279.08;38.14;-8.9;-7.15;-328.78;-108.75;7.18;500.61;23.01;-9.55;38.96;-4.55;99.58;3.91;8.57;-169.33;-33.11;221.85;4.6;7.6;0.34
2;-144.36;7.43;10.96;103.36;22.23;-35.27;-7.09;-307.72;-25.92;3.12;-5.14;39.52;-12.55;53.74;11.21;93.24;2.87;18.23;-187.51;-31.37;131.78;16.72;0.39;-1.92
2;124.71;-23.68;9.45;287.79;42.96;-15.86;-11.63;-407.37;-104.53;9.52;500.73;31.24;-10.49;33.47;-16.48;98.11;5.62;9.73;-221.49;-35.69;126.83;3.17;7.69;-0.22
2;-153.32;-5.14;11.94;95.66;29.3;-33.21;-13.88;-294.61;-76.82;6.42;-27.38;45.46;-12.79;51.88;35.47;111.9;4.14;18.14;-277.11;-29.45;192.88;24.66;-0.07;-1.82
2;126.97;-21.68;9.15;285.48;43.22;-8.65;-12.48;-327.43;-111.68;5.36;501.66;23.87;-9.45;47.64;-26.63;81.98;4.15;8.59;-186.4;-33.55;173.27;4.45;8.14;-0.31
2;-135.65;1.22;12.57;88.37;23.37;-30.91;-5.64;-278.62;-47.18;3.11;-24.55;37.43;-12.46;40.34;30.74;98.86;2.34;18.08;-207.96;-29.73;172.24;24.95;0.85;-1.28
2;110.32;-21.35;8.3;271.76;40.37;-8.24;-11.74;-373.81;-106.94;6.2;471.52;20.05;-9.61;45.14;-21.42;84.21;4.29;8.07;-135.49;-31.01;220.32;2.41;8.18;-0.51
2;-147.5;-1.86;11.42;90.31;24.16;-29.25;-7.75;-293.69;-47.01;3.58;-27.34;37.59;-13.3;47.97;35.27;88.36;3.3;17.08;-190.07;-32.15;135.66;18.75;-0.27;-1.85
2;144.68;-34.99;8.4;284.4;50.88;-7.68;-15.59;-388.71;-130.22;6.72;498.96;20.43;-8.83;47.05;-30.27;65.88;5.15;5.97;-161.36;-33.83;103.7;2.93;8.8;0.3
2;-143.02;4.39;12.18;97.36;31.53;-26.03;-6.26;-322.43;-46.45;5.59;-30.58;41.83;-12.36;53.64;8.05;110.64;3.31;17.81;-221.13;-32.71;176.68;24.84;1.09;-0.85
2;112.22;-18.35;8.2;294.17;40.2;-7.64;-18.69;-396.83;-98.3;5.49;501.31;22.36;-10.16;33.88;2.28;95.78;5.26;7.23;-115.41;-35.02;218.32;1.54;8.09;-1.12
2;-138.38;4.2;10.6;92.42;26.92;-25.77;-8.61;-285.18;-44.07;7.74;-20.57;38.25;-12.07;52.85;22.12;103.51;3.71;17.05;-234.24;-30.31;171.03;16.97;0.19;-1.29
2;130.81;-31.24;9.31;287.66;48.83;-11.68;-12.48;-362.38;-115.38;6.56;488.69;20.94;-10.23;36.65;-22.75;88.16;5.43;7.38;-137.19;-35.3;171.23;3.26;7.9;0.37
2;-142.37;-3.31;12.57;94.85;25.01;-30.13;-6.51;-307.09;-45.38;5.26;-21.62;42.98;-12.28;45.71;30.56;92.47;3.32;18.73;-213.06;-32.76;151.41;26.32;0.88;-1.79
2;124.29;-37.82;9.03;279.35;59.89;-10.05;-16.46;-323.22;-171.96;5.98;490.42;23.3;-9.6;26.35;-21.06;68.91;5.21;8.85;-138.42;-35.23;135.79;3.04;7.64;0.15
2;-135.19;7.38;11.17;90;23.06;-34.16;-6.82;-293.77;-33.59;5.07;-14.41;36.25;-12.41;44.86;32.17;103.61;4;17.55;-184.01;-30.45;208.26;17.38;0.59;-1.33
2;104.31;-17.38;7.41;279.72;41.17;-8.68;-10.85;-373.36;-100.73;6.66;485.69;18.42;-10.41;59.59;-34.47;93.9;4.91;7.74;-211.89;-33.38;184.74;0.01;7.68;-0.08
2;-148.2;-0.26;12.93;94.36;25.3;-32.39;-6.27;-296.61;-51.85;3.4;-20.84;38.14;-12.53;38.7;22.11;80.07;2.87;18;-149.67;-32.28;134.54;26.51;-0.17;-1.85
2;130.75;-50.26;8.88;274.43;61.13;-2.85;-14.58;-355.39;-157.56;7.37;476.89;21.19;-9.11;25.89;-13.29;91.34;4.79;5.67;-190.42;-31.69;165.4;1.63;8.3;0.89
2;-147.65;7.52;11.45;98.62;29.19;-35.2;-5.87;-303.09;-34.44;5.77;-19.15;35.05;-12.93;60.11;12.86;111.75;3.16;18.78;-205.18;-30.33;153.38;18.42;0.56;-1.3
2;128.17;-33.29;8.54;283.1;38.29;-4.95;-17.17;-409.4;-95.84;5.91;475.72;19.46;-9.23;22.46;-8.32;129.55;5.21;5.9;-177.54;-30.26;256.25;1.36;8.27;-0.52
2;-155.02;11.98;10.92;100.03;27.31;-30.1;-5.67;-317.92;-26.3;7.03;-17.6;39.13;-13.3;61.43;40.48;110.18;3.77;17.62;-231.55;-31.13;241.89;18.91;0.05;-1.42
2;133.59;-33.08;9.21;287.38;37.82;-7.52;-13.65;-364.14;-105.49;10.5;497.94;23.88;-8.39;40.69;-27.87;118.66;4.6;8.29;-231.65;-35.07;207.94;5.6;7.8;-0.42
2;-150.39;12.9;11.36;94.18;23.44;-29.55;-5.26;-313.25;-43.53;11.21;-31.87;40.75;-13.04;76.84;25.88;90.85;3.09;18.75;-223.72;-31.44;144.19;20.6;0.1;-1.22
2;125.16;-33.48;9.89;287.76;56.77;-14.46;-10.08;-333.02;-157.06;5.96;498.16;27.45;-9.31;62.5;-13.83;104.96;3.92;9.95;-185.36;-35.35;141.85;8.91;7.28;0.07
2;-154.75;13.44;11.46;96.04;25.74;-38.47;-7.16;-292.77;-42.96;5.3;-22.39;41.31;-12.91;62.74;22.96;104.94;3.6;19.04;-228.07;-28.79;179.46;24.4;0.02;-1.71
2;130.87;-37.19;8.75;275.53;52.78;-7.12;-10.54;-327.3;-143.99;7.17;490.22;24.7;-8.83;39.21;-20.78;92.2;3.67;7.89;-197.37;-34.35;112.21;4.82;8.33;0.15
2;-149.31;5.21;11.28;86.64;22.09;-35.71;-7.4;-289.79;-39.15;4.53;-34.79;40.94;-13.51;43.48;32.44;89.74;3.14;19.39;-192.04;-32.47;158.46;18;0.36;-1.29
2;127.82;-23.49;8.26;273.74;39.88;-8.22;-6.11;-363.61;-105.51;9.21;487.65;17.87;-9.13;38.5;-18.28;104.15;3.51;7.71;-233.07;-29.75;179.82;3.09;7.8;-0.17
2;-166.45;-2.78;11.82;94.95;23.64;-35.96;-11.01;-314.18;-47.94;6.89;-38.67;39.6;-13.78;46.19;17.78;97.99;4.02;19.34;-247.19;-32.95;144.47;21.48;-0.12;-2.04
2;166.67;-25.02;7.77;274.68;38.53;-2.07;-8.59;-243.78;-89.47;5.4;501.4;19.15;-6.56;39.54;-0.21;106.17;3.39;6.27;-156.92;-21.26;236.47;4.92;9.22;0.35
2;-156.71;-2.77;11.99;98.8;39.02;-40.12;-18.96;-329.02;-99.03;10.68;-8.69;37.06;-14.7;46.27;32.84;119.92;5.73;19.8;-198.96;-33.52;282.18;20.71;-0.96;-2.26
2;101.42;-7.49;10.06;285.2;49.51;-16.92;-9.38;-319.43;-104.98;5.7;494.42;25.12;-8.61;62.13;-19.92;111.5;4.07;10.41;-230.42;-35.94;245.37;8.24;7.36;-1.03
2;-129.32;7;11.91;90.91;24.67;-33.95;-7.16;-267.19;-48.99;5.25;0.47;40.77;-12.81;52.13;41.34;95.31;3.33;18.68;-230.48;-26.63;165.02;27.56;-0.37;-2.5
2;104.7;-32.44;8.58;262.78;63.35;-13.67;-9.63;-282.47;-168.93;7.4;458.59;24.95;-8.79;48.07;-28.49;79.6;3.8;9.04;-165.82;-32.23;108.58;4.21;7.89;0.73
2;-129.43;12;10.65;80.4;27.08;-37.35;-7.66;-246.09;-42.45;2.78;-20.28;35.65;-12.97;64.98;34.37;109.79;3.01;18.1;-187.19;-28.58;203.42;16.5;0.26;-1.99
2;124.26;-28.36;7.43;263.69;44.8;-11.6;-10.36;-342.41;-123.36;4.21;472.32;18.98;-9.1;42.58;-9.93;75.43;3.79;7.5;-143.74;-32.66;140.18;0.97;7.61;-0.22
2;-134.08;12.84;9.52;90.66;23.38;-23.72;-7.5;-288.78;-27.72;6.28;-12.05;40.41;-12.18;51.66;19.32;88.41;3.11;16.03;-229.37;-25.67;119.19;17.65;0.65;-1.25
2;119.53;-29.76;8.41;275.98;46.71;-9.13;-16.41;-358.67;-122;6.78;478.28;18.05;-9.63;28.52;-30.84;51.09;5.57;7.26;-115.71;-34.07;57.52;0.06;7.71;-0.4
2;-130.33;3.32;11.71;97.06;28.59;-30.52;-4.38;-289.48;-45.37;6.28;-15.29;34.99;-11.74;58.92;15.36;100.77;3.76;17.19;-224.37;-27.83;156.93;22.68;1.47;-0.69
2;112.59;-46.48;7.06;257.42;53.79;-7.79;-10.51;-342.44;-146;8.74;450.33;18.5;-9.94;29.2;-7.55;96.03;3.89;6.55;-157.1;-33.82;181.77;-1.04;7.21;0.57
2;-130.42;14.15;9.74;93.01;23.76;-28.75;-5.26;-293.62;-34.87;7.95;-11.65;36.13;-11.76;59.09;16.69;91.09;2.84;15.83;-192.64;-24.46;141.9;18.45;0.94;-1.3
2;114.55;-36.08;8.75;265.61;44.15;-13.42;-11.67;-333.88;-128.84;6.27;468.6;21.74;-9.73;26.25;-14.76;94.54;4.43;8.43;-185.54;-32.76;120.91;2.58;7.11;-0.12
2;-130.55;11.09;11.39;91.68;30.11;-30.2;-8.21;-282.41;-43.5;4.23;-8.48;41.52;-11.98;68.97;13.31;110.32;3.7;17.16;-258.88;-26.94;175.38;24.03;0.91;-1.5
2;121.58;-34.55;8.6;262.89;52.58;-8.03;-12.02;-377.24;-131.14;7.56;455.23;18.49;-9.28;53.57;-12.49;75.99;4.66;7.42;-159.77;-34;129.44;1.1;7.87;0.35
2;-135.85;12.18;10.68;94.05;31.89;-22.74;-6.02;-294.17;-50.29;9.05;-27.35;39.67;-12.43;68.12;19.05;87.47;3.53;16.14;-212.51;-26.82;110.83;20.75;0.65;-0.85
2;109.75;-35.95;8.27;264.55;49.51;-3.59;-12.28;-311.59;-134.42;8.77;472.56;18.87;-9.32;29.52;-10.18;99.34;4.37;6.44;-204.76;-35.16;151.13;1.95;7.86;-0.04
2;-140.97;16.83;9.72;83.91;22.17;-27.27;-6.76;-272.58;-39.15;11.11;-30.94;31.82;-13.08;55.3;21.64;86.47;3.42;15.66;-188.02;-27.1;117.84;14.7;0.21;-1.21
2;127.97;-34.41;9.18;261.09;40.65;-3.43;-11.91;-316.14;-109.23;9.5;475.36;17.12;-8.7;31.4;-18.81;97.28;3.89;5.68;-243.94;-34.16;127.71;2.82;8.21;0.03
2;-138.13;10.8;10.58;86.45;26.95;-29.41;-7.13;-277.05;-47.61;8.46;-20.49;29.84;-13.22;71.02;46.77;88.37;3.33;16.06;-142.69;-27.67;165.17;17.94;0.24;-1.39
2;119.36;-17.52;9;275.99;39.67;-13.57;-8.12;-289.94;-89.57;3.64;493.91;20.04;-8.57;37.62;-22.81;86.63;3.4;8.34;-160.07;-31.82;171.86;7.35;6.95;-0.75
2;-129.07;13.12;10.14;87.89;29.55;-32.53;-11.75;-276.77;-36.61;4.3;-10.59;39.01;-12.1;61.65;31.55;115.64;3.63;17.17;-233.34;-25.64;215.14;16.86;0.81;-2.06
2;113.82;-22.06;8.97;265.95;53.61;-11.31;-11.85;-337.75;-135.46;6.89;463.1;20.38;-9.3;85.61;-20.02;76;4.3;8.43;-164.29;-33.82;95.65;4.67;7.34;0.12
2;-136.08;9.14;12.63;84.69;25.34;-28.16;-6.08;-275.6;-52.19;4.16;-33.73;40.04;-12.2;66.73;22.94;86.29;2.68;16.93;-216.75;-27.91;129.64;28.28;0.91;-1.43
2;123.8;-33.76;8.47;267.48;61.78;-15.92;-7.43;-333.15;-164.05;11.18;470.9;23.66;-9.18;34.69;-11.55;85.37;4.35;10.02;-200.15;-34.57;116.84;4.96;7.02;0.31
2;-140.09;9.14;11.6;97.6;29.46;-29.75;-7.28;-301.89;-49.31;6.87;-18.28;41.12;-12.67;86.9;27.39;102.08;3.63;17.26;-237.96;-27.31;172.26;28;1.29;-1.54
2;144.65;-52.25;6.97;252.52;63.6;-11.01;-7.96;-228.02;-186.53;6.01;485.5;23.99;-7.48;17.88;-9.6;96.26;3.89;9.9;-237.25;-15.39;130.62;2.76;7.88;0.82
2;-151.55;15.61;12.55;103.46;32.45;-35.75;-7.18;-338.85;-55.72;9.96;-5.71;38.85;-13.7;83.2;5.56;105.2;3.82;18.75;-214.8;-35.82;108.28;23.27;-0.07;-1.27
2;97.72;-29.48;10.05;280.82;59.82;-14.03;-11.24;-301.55;-159.57;10.29;480.5;25.79;-8.26;90.54;-25.87;97.9;4.35;9.15;-239.2;-34.93;103.43;17.98;6.95;-0.21
2;-128.78;7.29;9.41;88.74;23.46;-34.27;-9.24;-266.95;-31.36;3.34;-7.73;38.44;-12.86;55.1;45.5;95.24;2.49;17.03;-162.08;-23.76;216.54;21.13;0.75;-2.19
2;120.4;-20.54;8.93;265.6;42.89;-10.97;-9.65;-318;-92.2;6.91;460.01;21.78;-8.94;43.43;-29.03;99.54;3.98;8.21;-224.08;-35.25;162.89;4.61;6.8;-0.24
2;-126.46;3.04;10.64;94.85;25.51;-34.76;-6.96;-265.84;-43.1;4;10.17;38.53;-12.28;61.94;32.08;99.4;3.24;17.57;-199.24;-29.63;211.13;20.73;1.24;-1.69
2;111.19;-29.94;7.95;258.47;53.97;-11.08;-12.1;-311.16;-138.65;5.42;452.89;21.49;-8.53;35.77;-23.9;75.05;4.55;7.76;-147.77;-28.45;186.12;5.39;7.11;-0.17
2;-125.07;8.75;9.36;93.21;26.57;-28.42;-7.27;-260.96;-45.91;5.99;2.71;28.11;-12.41;58.43;28.74;97.17;3.94;15.61;-192.07;-25.88;167.1;12.37;0.43;-0.99
2;112.54;-30.32;8.11;247.66;46.36;-4.03;-11.85;-327.48;-126.7;6.07;443.87;19.24;-8.71;38.89;-20.35;86.64;4.03;6.9;-178.15;-34.03;118.71;2.51;7.38;-0.21
2;-127.42;14.55;8.37;86.21;22.91;-25.26;-5.45;-278.09;-27.27;7.53;-14.31;34.2;-12.23;58.04;15.3;93;3.05;15.06;-162.15;-26.25;153.21;7.89;1.01;-0.55
2;106.68;-22.95;8.41;261.28;43.83;-15.25;-8.16;-326.77;-110.39;4.53;455.05;18.43;-9.08;42.53;1.27;77.21;3.9;7.65;-130.32;-26.4;156.43;2.2;7.27;-0.33
2;-126.12;9.37;8.01;86.3;21.15;-28.01;-7.68;-261.38;-26.8;4.4;-21.95;40.13;-12.63;44.49;4.49;111.01;2.9;16.33;-281.86;-23.45;209.7;11.03;0.86;-1.08
2;114.86;-37.33;8.73;254.87;45.98;-7.64;-15.65;-335.7;-125.82;8.02;444.16;17.15;-8.8;27.23;-0.1;99.76;5.14;6.68;-203.37;-32.83;188.4;2.86;6.91;0.32
2;-118.54;23.3;9.5;95.8;28.01;-25.82;-5.67;-256.77;-25.93;13.19;1.75;28.51;-11.29;93.48;16.64;88.52;4.16;15.14;-188.41;-24.06;136.72;17.11;0.87;-0.75
2;93.44;-35.26;8.51;256.55;40.72;-10.2;-9.31;-317.14;-120.59;14.11;452.72;20.95;-9.5;51.62;-13.31;100.3;4.2;7.47;-204.7;-35.53;134.6;3.49;6.44;0.07
2;-130.06;21.79;10.08;95.12;26.57;-29.54;-6.55;-273.71;-32.39;12.22;0.04;35.18;-11.57;76;20.04;97.92;3.56;16.39;-197;-24.11;153.34;17.96;0.99;-1.73
2;98.14;-35.96;8.69;269.52;43.49;-8.79;-10.38;-310.59;-136.19;5.7;476.85;24.54;-9.21;54.66;-33.12;100.99;3.71;8.06;-204.01;-34.59;153.83;6.85;7.03;-0.17
2;-120.95;7.35;11.01;92.12;28.3;-36.43;-5.98;-260.31;-41.25;6.01;5.89;36.87;-12.25;61.59;34.72;95.72;3.04;17.68;-149.33;-27.43;196.71;22.62;0.25;-1.42
2;112.09;-34.82;8.15;261.11;57.94;-11;-12.32;-337;-157.56;9.11;450.1;20.7;-9.64;34.16;-3.47;69.75;4.55;7.47;-135.58;-35.48;100.43;3.04;6.9;0.04
2;-131.97;13.61;10.44;96.28;27.39;-26.67;-7.12;-294.48;-45.19;10.43;-12.72;34.05;-11.94;73.2;11.95;88.89;3.75;15.32;-225.85;-23.69;121.99;21.99;0.66;-1.57
2;121.93;-26.66;9.57;277.69;48.94;-14.6;-10.62;-318.63;-131.78;13.19;480.65;24.96;-9.31;88.83;-24.1;71.49;4.8;9.84;-176.82;-33.93;97.37;5.06;6.98;0.36
2;-131.58;7.76;12.06;98.32;27.63;-34.67;-5.02;-276.41;-57.55;3.82;-8.38;39.58;-11.41;66.95;17.29;103.54;3.29;17.32;-231.47;-25.29;157.05;28.71;1.52;-1.21
2;119.52;-23.82;9.63;266.35;47.11;-8.99;-12.2;-333.55;-130.27;9.79;457.41;22.13;-9.05;35.44;-9.97;72.69;5.01;8.35;-148.09;-35.55;123.74;5.55;7.71;-0.36
2;-124.49;6.92;11.03;102.05;30.44;-32.26;-7.56;-267.74;-45.88;5.46;9.81;31.68;-12.05;75.98;25.12;88.14;3;15.96;-153.57;-24.87;173.12;21.15;0.99;-1.55
2;112.85;-32.89;10.12;254.92;52.61;-6.58;-13.4;-303.88;-128.73;10.68;437.95;21.09;-8.12;42.72;-9.67;72.86;4.72;7.53;-182.29;-34.04;123.14;5.63;7.28;0.09
2;-118.16;14.99;10.39;90.73;29.79;-31.28;-7.2;-240.1;-52.73;13.85;15.98;27.08;-11.98;93.32;34.3;106.16;3.88;15.36;-233.62;-25.87;209.8;18.11;0.68;-1.21
2;116.28;-32.14;8.15;243.33;46.85;-12.07;-15.47;-306.26;-127.59;4.93;424.61;20.5;-8.64;41.88;-40.88;64.05;4.8;8.06;-159.88;-33.76;88.59;1.52;7;-0.65
2;-122.75;5.32;10.21;94.17;29.35;-31.39;-7.47;-261.66;-52.57;8.75;8.03;33.02;-12.01;65.56;27.27;109.49;3.39;15.6;-243.08;-27.07;214.9;17.62;1.05;-0.78
2;112.6;-32.4;7.96;248.31;52.78;-9.2;-8.73;-387.42;-138.37;6.38;417.44;20.11;-8.93;53.84;-16.05;76.92;4.31;7.12;-126.71;-30.78;145.04;1.23;6.71;0.42
2;-118.92;4.39;11.37;98.56;25.25;-25.08;-6.46;-273.5;-64.66;6.27;3.56;38.14;-11.52;66.94;25.05;91.24;3.4;15.11;-201.02;-25.52;193.93;24.4;1.37;-1.25
2;102.46;-37.45;7.34;244.22;51.73;-5.12;-11.51;-333.61;-131.43;8.12;435.4;16.61;-9.33;39.76;-32.32;92.06;3.98;6.15;-176.15;-34.39;166.6;0.29;6.31;0.39
2;-116.45;9.25;8.85;92.26;20.58;-23.86;-5.41;-268.61;-38.47;7.65;2.84;35.05;-11.3;39.37;37.48;78.44;2.48;14.88;-186.92;-24.55;159.59;14.96;1.39;-0.91
2;96.02;-44.6;7.55;240.02;53.04;-3.71;-11.97;-319.39;-152.85;7.08;427.47;19.12;-9.16;21.27;-13.46;110.06;4.03;6.63;-232.64;-33.09;147.02;3.44;6.24;0.34
2;-126.27;18.45;9.04;90.26;22.83;-27.71;-5.39;-273.97;-27.51;10.37;-12.8;27.6;-12.05;76.12;12.87;87.22;3.18;14.54;-166.43;-24.29;144.31;16.13;0.96;-0.64
2;112.4;-32.19;9.42;256.31;46.1;-14.11;-16.89;-319.61;-112.79;8.63;458.55;19.52;-9.23;43.12;-4.13;106.12;5.3;7.37;-200.87;-36.5;135.24;3.31;7.16;-0.5
2;-124.61;19.36;9.41;92.12;31.35;-25.15;-7.55;-266.98;-36.6;15.61;-7.5;37.87;-11.41;93.01;12.76;105.44;4.7;15.13;-306.88;-25.47;172.77;17.2;0.65;-0.78
2;115.74;-32.36;8.59;242.94;41.69;-7.17;-12.95;-339.85;-98.88;9.13;423.09;15.14;-8.94;36.63;-19.45;69.3;4.39;5.88;-168.55;-32.59;107.94;0.23;7.35;-0.17
2;-121.62;10.25;8.8;91.4;27.48;-28.37;-6.5;-254.85;-37.49;9.6;-10.09;33.22;-11.89;67.28;33.07;96.83;3.5;14.8;-194.71;-23.16;183.77;14.23;1.12;-1.11
2;108.44;-16.69;10.18;256.45;44.37;-7.51;-11.8;-354.38;-111.91;8.6;430.67;20.94;-9.18;47.24;-34.83;59.4;5.3;7.88;-138.73;-36.03;92.73;5.69;6.99;-0.02
2;-120.18;-1.3;10.68;92.93;25.22;-30.12;-5.34;-257.71;-59.14;5.14;7.49;33.8;-11.59;75.57;36.89;91.12;3.31;15.93;-176.17;-25.92;207.3;21.54;0.95;-1.18
2;103.21;-18.37;9.16;259.35;54.6;-8.03;-12.74;-310.2;-150.69;7.73;461.53;26.63;-9.36;34.88;-38.77;88.07;5.36;9.73;-152.4;-33.16;170.23;5.68;6.84;-0.29
2;-121.87;-3.25;10.14;96.82;27.3;-32.5;-5.6;-280.27;-51.74;4.78;3.54;26.11;-11.41;51.14;24.55;90.53;3.05;14.84;-135.95;-25.63;196.39;19.29;1.62;-0.83
2;92.5;-29.5;8.59;260.97;49.83;-8.58;-15.28;-319.62;-123.48;6.42;448.78;17.65;-8.69;49.9;-23.2;74.49;5.14;5.86;-181.26;-34.99;111.34;1.58;6.77;0.37
2;-121.83;0.64;10;93.39;19.33;-33.47;-5.9;-250.79;-46.92;6.49;20.28;29.99;-12.51;41.2;66.25;99.97;3.29;16.26;-124.15;-27.14;273.96;18.86;0.49;-1.47
2;94.9;-34.42;7.71;250.86;47.89;-18.45;-12.73;-315.8;-123.98;5.58;438.33;37.55;-8.39;65.84;-47.17;83.23;3.83;8.89;-196.05;-32.2;88.57;6.5;6.96;0.58
2;-132.84;11.87;8.91;90.54;26.74;-36.02;-7.86;-260.55;-36.48;7.45;2.25;37.82;-13.46;75.87;41.87;75.69;4.13;16.08;-81.4;-26.6;191.4;15.15;-0.72;-1.22
2;156.94;-31.24;6.11;243.14;63.63;-8.92;-8.33;-204.98;-152.84;7.22;482.8;23.35;-6.03;74.38;1.55;101.7;4.29;7.35;-225.79;-14.77;157.8;4.6;8.38;0.22
2;-140.43;1.78;10.64;97.75;31.66;-27.21;-11.71;-338.55;-96.17;6.98;-9.61;31.35;-13.12;56.39;19.14;107.29;3.53;15.62;-234.65;-36.13;185.32;19.66;0.9;-1.18
2;85.24;-33.89;8.07;255.47;57.71;-20.38;-11.1;-297.17;-157.84;5.76;456.59;21.44;-8.88;85.98;-27.88;98.39;3.54;9.27;-239.27;-35.71;162.64;2.93;5.46;0.23
2;-123.98;11.34;9.62;96.91;20.17;-32.07;-6.4;-266.51;-25.98;3.82;18.05;36.2;-11.95;44.39;40.57;80.35;2.73;16.58;-173.66;-24.72;159.97;18.39;1.02;-1.57
2;96.46;-19.53;9.05;257.73;44.11;-10.77;-14.12;-288.26;-104.34;10.17;454.82;18.52;-8.33;50.43;-34.85;66.71;4.52;6.22;-151.7;-33.84;66.08;4.66;6.92;-0.09
2;-114.99;7.05;9.13;86.82;22.78;-33.25;-9.49;-247.14;-47.86;7.86;7.22;22.24;-11.93;48.12;48.91;100.95;3.02;14.98;-131.01;-25.04;237.17;16.81;0.72;-1.62
2;104.63;-17.74;10.37;244.05;45.49;-9.59;-9.71;-278.53;-97.99;7.41;423.66;20.19;-8.1;60.18;-34.18;47.38;4.45;7.22;-141.36;-34.07;70.04;6.2;6.94;0.32
2;-119.48;8.17;9;88.2;22.22;-30.69;-5.1;-246.04;-42.29;5.08;6.51;26.35;-11.96;52.58;25.44;87.46;2.71;15;-154.38;-24.61;149.51;17.27;0.65;-1.31
2;92.23;-22.93;8.45;259.53;46.99;-14.32;-12.02;-304.53;-112.54;7.05;456.9;18.4;-8.58;55.54;-23.34;72.65;4.31;7.08;-205.96;-35.57;96.09;3.44;6.36;-0.15
2;-133.31;-1.54;9.63;91.69;25.02;-25.47;-6.85;-265.98;-41.04;5.71;16.53;35.81;-12.69;56.8;57.06;99.55;3.58;14.78;-208.15;-28.15;224.88;21.03;0.79;-1.18
2;153.21;-32.68;6;217.48;56.63;-16.09;-8.83;-198.72;-123.12;5.26;432.91;20.56;-6.13;57.28;-22.66;65.33;3.13;6.36;-132.16;-18.24;97.87;4.14;8.12;0.83
2;-133.12;3.56;9.8;92.15;23.57;-26.03;-5.64;-300.74;-51.38;5.43;-2.99;33.09;-13.71;33.75;15.48;90.34;3.11;15.48;-208.54;-35.32;160.93;13.68;0.85;-0.86
2;86.56;-16.94;8.9;248.32;48.6;-13.93;-11.35;-281.16;-111.07;7.32;436.89;21.06;-8.36;43.13;-21.6;62.96;4.4;7.66;-161.78;-35.84;158.95;6.85;6.36;-0.09
2;-121.29;5.67;8.48;83.39;21.11;-30.05;-9.7;-252.99;-45.74;3.59;-8.98;28.38;-12.24;39.15;41.59;81.18;2.96;13.81;-159.92;-24.13;180.95;16.36;0.72;-1.89
2;110.54;-24.35;8.55;241.87;47.55;-8.39;-8.6;-274.4;-113.57;7.15;432.97;19.59;-7.93;62.26;-28.27;77;4.41;6.33;-164.11;-32.57;77.62;4.62;6.9;0.83
2;-118.69;7.13;8.23;83.5;22.56;-24.73;-4.84;-251.57;-45.33;3.44;-7.3;26.86;-12.08;43.3;30.2;81.36;2.46;13.86;-151.91;-23.68;162.48;15.05;1.02;-1.35
2;98.54;-31.4;8.95;246.58;46.47;-8.43;-8.89;-270.53;-120.14;6.02;448.95;18.68;-8.76;45.57;-25.35;73.97;3.59;6.77;-160.61;-33.06;120.06;2.95;6.75;0.18
2;-121.73;7.23;8.15;78.38;24.35;-27.6;-8.18;-247.75;-37.43;3.72;-20.13;28.23;-12.15;43.83;35.98;78.91;3.07;13.29;-139.43;-23.25;171.95;12.01;1.11;-1.47
2;106.31;-22.86;8.7;261.08;47.74;-9.41;-13.06;-297.68;-108.23;14.03;461.86;20.05;-8.37;90.33;-17.38;69.54;4.85;6.6;-206.2;-35.67;89.59;4.28;7.08;-0.16
2;-113.19;13.77;9.93;81.87;28.88;-26.82;-4.74;-250.37;-58.82;9;-3.59;24.5;-11.38;63.65;40.52;94.18;2.73;13.87;-136.22;-26.37;180.28;20.6;1.11;-1.74
2;108.68;-19.54;7.07;244.31;37.78;-9.34;-8.4;-288.97;-88.72;6.59;436.08;17.68;-8.47;29.84;-19.49;85.43;4.31;6.5;-191.94;-29.63;133.99;2.57;6.84;-0.43
1;90.11;-10.25;4.6;214.89;40.83;-4.58;-10.45;-340.81;-79.68;5.59;392.87;26.89;-9.49;56.77;-27.81;85.13;4.52;7.57;-135.14;-20.61;112.84;-3.84;6.34;-1.05
1;-94.28;-2.67;4.5;66.13;25.1;-13.68;-6.76;-231.19;-37.67;6.04;-28.09;17.53;-11.53;42.96;30.61;68.18;2.24;8.2;-161.15;-18.61;199.94;1.75;2.07;-0.57
1;98.56;-29.39;5.65;220.92;35.88;-11.39;-7.07;-291.53;-103.03;5.46;402.94;15.23;-9.24;45.5;-23.58;119.73;3.11;6.62;-245.95;-24.05;175.79;-0.71;5.02;-0.18
1;-111.8;13.66;3.73;64.96;29.56;-11.05;-4.65;-258.81;-23.52;2.66;-44.89;23.2;-11.43;60.94;23.63;49.98;1.67;7.98;-99.6;-19.15;91.8;-3.36;2.56;-1.09
1;103.32;-33.22;6.17;212.97;31.53;-5.58;-15.92;-294.01;-87.01;3.48;379.48;11.36;-8.93;20.77;-24.54;82.35;4.14;4.04;-172.5;-33.64;115.99;-2.2;5.93;-0.63
1;-107.69;4.2;5.24;57.25;24.55;-11.94;-6.57;-252.68;-43.3;7.32;-44.78;24.29;-11.83;46.6;15.15;74.37;2.58;8.64;-160.29;-24.91;134.24;5.03;3.04;-1.06
1;146.54;-46.75;7.2;216.8;39.28;-10.97;-8.96;-301.31;-116.16;6.05;408;18.92;-9.7;27.81;-9.31;128.29;2.97;7.39;-207.1;-34.22;195.96;-2.51;6.22;0.74
1;-118.16;12.23;5.22;60.83;23.11;-10.34;-4.93;-279.1;-16.42;2.4;-55.12;27.74;-11.19;52.11;28.03;64.38;1.79;9.56;-170.77;-17.23;133.77;4.26;2.4;-1.11
1;99.01;-26.15;4.54;213.98;31.68;-9.16;-5.95;-305.81;-94.78;5.08;389.34;14.96;-9.42;22.58;-27.13;88.62;3.07;5.87;-263.66;-21.36;100.23;-2.94;6.15;-0.2
1;-107.09;13.51;3.48;51.77;22.46;-15.56;-3.25;-236.78;-18.54;3.29;-51.58;23.51;-12.3;60.53;23.97;52.21;1.56;9.17;-145.62;-18.17;98.27;-5.07;2.82;-0.6
1;90.39;-28.02;5.75;200.25;43.43;-12.01;-7.54;-277.33;-120.64;8.37;343.51;15.94;-9.81;62.17;-30.05;94.02;3.31;6.84;-164.36;-29.94;147.9;-1.06;5.23;-0.13
1;-114.55;-6.62;6.22;67.02;18.06;-15.91;-8.37;-224.42;-40.56;3.79;-31.2;29.33;-11.95;40.7;23.57;86.34;2.47;10.56;-194.94;-21.3;161.77;6.94;1.92;-0.66
1;95.99;-28.9;4.83;208.17;38.95;-10.18;-7.32;-275.76;-99.76;9.39;349.16;16.93;-9.16;43.25;-18;95.93;3.58;6.73;-205.89;-21.98;199.37;-4.15;5.59;0.18
1;-115.77;8.41;4.53;55.36;19.34;-12.28;-6.25;-221.33;-26.85;7.7;-57.44;24;-11.82;37.07;28.86;72.1;2.09;8.94;-140.72;-19.81;183.54;1.31;1.31;-1.01
1;104.6;-29.04;6.57;209.16;33.71;-6.92;-8.44;-270.57;-96.43;7.73;382.96;14.96;-9.69;14.56;-47.3;79.98;4.03;6.06;-187.35;-33.26;133.05;-1.47;6.57;-0.06
1;-115.78;2.01;5.51;55.83;22.97;-14.99;-7.25;-251.24;-32.68;3.51;-62.61;22.57;-11.56;49.22;28.12;61.19;2.53;9.14;-101.69;-21.88;124.3;5.24;2.03;-0.98
1;106.35;-33.95;5.51;208.66;39.5;-7.08;-10.85;-254.16;-113.45;6.42;378.62;14.56;-9.04;34.73;-25.7;79.89;4.51;5.08;-158.19;-26.6;149.05;-1.31;6.46;-0.11
1;-113.16;4.01;7.05;64.59;23.45;-14.95;-4.42;-247.98;-28.98;6.68;-48.63;26.46;-11.93;41.98;23.55;74.04;2.61;9.86;-179.04;-33.32;136.93;7.67;1.94;-0.48
1;90.99;-30.64;5.48;208.7;41.36;-8.92;-7.11;-294.63;-116.89;6.58;356.13;14.09;-9.34;40.05;-21.76;113.46;3.25;6.06;-234.65;-23.08;212.07;-1.35;5.91;-0.12
1;-111.94;9.12;4.51;61.2;24.95;-13.05;-4.06;-261.05;-24.69;3.16;-50.86;22.23;-12.04;54.22;26.86;55.31;1.72;9.03;-79.82;-18.93;115.67;-1.78;2.44;-0.94
1;113.16;-39.89;5.4;211.15;39.09;-6.48;-6.67;-270.31;-126.17;5.85;388.94;12.13;-8.83;29.62;-23.62;90.64;3.04;3.96;-205.67;-28.34;149.22;-0.47;6.42;0.11
1;-100.08;5.9;5.58;68.09;24.51;-10.72;-3.8;-267.16;-25.45;5.3;-38.94;24.54;-11.3;50.62;22.59;62.13;1.86;8.79;-122.97;-28.76;91.81;0.57;2.76;-0.37
1;75.11;-28.26;5.67;206.33;50.73;-8.07;-8.66;-285.14;-125.05;7.36;376.98;16.5;-10.23;65.39;-22.31;97.45;4.06;6.29;-235.5;-31.36;148.62;-3.54;5.04;-0.65
1;-106.98;7.01;5.92;55.47;25.72;-11.7;-6.8;-256.19;-26.55;3.73;-52.99;28.01;-11.45;60.74;37.31;71.95;2.06;9.77;-135.95;-20.47;173.67;5.4;1.58;-0.93
1;108.92;-32.1;5.84;207.29;34.04;-9.04;-8.87;-269.08;-110.28;6.88;383.25;15.88;-8.95;13.39;-35.23;111.43;3.67;5.99;-198.37;-28.62;160.45;-0.54;6.63;-0.29
1;-122.14;5.23;5.64;57.28;27.76;-14.09;-7.81;-263.76;-39.42;6.51;-61.08;32.31;-11.98;58.55;20.98;77.25;2.32;10.73;-196.4;-27.38;131.01;4.93;2.09;-0.82
1;96.95;-20.32;5.71;213.23;39.65;-11.3;-6.96;-282.19;-101.57;4.93;358.71;20.99;-8.95;51.64;-13.34;70.49;3.03;6.77;-169.57;-25.51;103.61;-1.24;6.79;-0.22
1;-107.89;9.69;3.92;66.6;24.09;-11.22;-4.04;-235.9;-21.48;1.74;-34.66;24.25;-11.34;63.66;12.37;50.12;1.44;9.44;-136.26;-18.2;90.67;-2.22;1.25;-0.92
1;113.29;-35.91;5.68;217.5;47.25;-6.58;-6.78;-310.27;-135.26;6.64;394.49;19.7;-9.21;17.87;-8.12;93.77;3.57;6.46;-180.9;-24.51;164.52;-0.32;6.98;0.17
1;-113.88;14.63;4.22;56.81;25.39;-14.23;-5.64;-243.92;-19.75;4.55;-52.54;28.81;-11.8;58.6;10.39;65.39;2;10.2;-155.96;-22.08;117.67;1.61;1.88;-0.97
1;111.77;-30.74;6.02;227.86;42.03;-10.09;-11.69;-249.9;-122.49;7.26;419.71;15.37;-9.09;24.27;-15.3;87.27;4.33;6.55;-149.48;-27.85;157.91;-0.09;6.96;-0.25
1;-119.41;7.61;6.34;64.24;22.55;-12.05;-6.12;-261.53;-22.51;2.17;-57.85;24.33;-12;45.58;8.59;64.14;1.45;9.06;-191.91;-30.98;102.88;4.53;1.85;-0.62
1;121.81;-16.71;6.53;227.36;24.48;-8.85;-7.46;-347.67;-53.18;5.87;414.39;17.92;-9.23;32.28;-6.05;64.92;3.55;5.4;-114.89;-31.54;141.6;-3.24;7.61;-0.33
1;-114.29;5.89;4.98;64.09;25.32;-17.93;-5.68;-258.15;-31.77;4.21;-48.19;33.97;-11.6;52.12;21.22;71.21;1.79;11.25;-206.02;-22.2;134.04;4.54;1.96;-0.98
1;115.76;-41.5;6.7;215.32;41.91;-0.12;-11.61;-285.15;-118.76;6.88;391.8;17.4;-9.08;13.64;-20.08;83.8;3.91;4.25;-244.22;-33.68;106.35;-1.55;7.45;0.22
1;-116.02;15.26;6.5;68.24;27.81;-15.92;-5.28;-267.23;-14.75;9.06;-50.51;25.94;-12.04;55.17;26.72;67.02;2.46;10.32;-147.97;-31.78;171.09;5.24;1.45;-0.9
1;95.97;-27.37;7.25;209.52;40.37;-10.75;-13.13;-337.44;-104.76;9.72;351.88;22.99;-9.28;36.21;-26.47;80.26;4.74;6.82;-192.74;-34.7;143.88;-0.13;7.65;-0.38
1;-99.44;11.43;7.31;69.39;27.92;-15.73;-5.43;-234.13;-29.9;5.74;-30.85;26.65;-11.13;74.52;27;82.79;2.17;10.58;-213.96;-20.36;212.01;7.72;1.83;-0.84
1;109.45;-24.69;5.85;215.98;27.44;-7.8;-9.88;-275.32;-82.75;7.98;381.09;15.29;-9.8;11.71;-25.52;67.85;3.68;6.1;-147.92;-31.18;99.95;-2.55;6.73;-0.14
1;-118.11;8.15;7.07;58.27;21.92;-15.32;-6.72;-230.12;-32.56;8.3;-56.13;30.44;-12.07;53.5;10.76;59.25;2.68;10.19;-161.37;-30.49;86.94;9.3;1.68;-0.99
1;107.7;-39.18;6.61;207.79;51.04;-8.29;-9.03;-281.59;-133.16;8.53;391.59;14.95;-9.28;46.87;-15.11;100.27;4.05;5.39;-214.35;-33.18;176.27;-1.67;6.87;0.33
1;-112.95;9.46;6.01;63.42;25.08;-15.87;-4.75;-254.47;-21.8;3.86;-49.6;30.49;-11.67;45.36;24.73;72.48;2.28;11.15;-145.37;-19.92;152.95;7.13;2.04;-1.02
1;103.36;-29.36;6.41;201.46;41.71;-11.34;-9.67;-296.32;-98.09;8.65;355.25;16.27;-9.72;36.74;-24.86;85.63;4.03;6.43;-226.97;-35.37;139.63;-2.56;6.55;-0.23
1;-122.54;2.09;6.89;51.92;24.48;-11.14;-5.87;-234.31;-39.96;8.83;-53.3;26.65;-12.31;53.22;36.41;72.6;2.86;9.74;-144.67;-27.86;145.31;9.97;1.74;-0.9
1;111.39;-23.64;7.33;205.76;40.16;-8.45;-12.23;-249.96;-92.81;10.3;371.71;16.34;-9.05;41.93;-32.67;96.22;4.2;5.78;-200.39;-36.37;118.21;-0.11;6.4;-0.37
1;-118.98;2.79;7.95;57.91;30.07;-16.8;-6.75;-223.79;-53.74;8.43;-47.17;27.63;-11.58;66.52;19.03;74.73;3.34;10.4;-202.28;-26.43;123.2;15.26;1.28;-1
1;117.01;-22.61;7.64;234.5;37.05;-11.43;-9.13;-283.35;-94.81;11.01;424.67;15.5;-10.04;40.06;-13.83;77.44;4.17;6.67;-156.2;-34.74;140.2;-1.98;6.44;0.02
1;-117.94;7.61;7.51;65.81;24.24;-17.03;-6.67;-253.73;-42.08;5.81;-51.79;29.68;-11.5;52.95;20.39;58.98;2.33;10.41;-147.4;-22.07;149.03;12.1;2.14;-1.38
1;116.73;-25.65;6.97;224.86;27.45;-9.13;-9.15;-268.21;-68.59;9.97;412.09;13.14;-9.54;30.73;-17.59;79.08;3.76;5.13;-218.59;-35.49;90.52;-2.25;6.36;-0.03
1;-120.72;7.02;8.62;60.55;26.27;-18.02;-5.86;-226.9;-47.75;7.93;-48.59;34.59;-11.67;62.05;17.69;85.81;3.06;11.77;-222.13;-28.14;184.75;15.25;1.57;-1.1
1;114.58;-25.87;7.45;230.27;35.33;-9.47;-11.07;-290.8;-91.53;9.16;411.49;18.88;-9.64;31.36;-20.29;90;4.6;6.91;-176.72;-33.33;146;-0.71;6.98;-0.24
1;-117.38;5.86;7.75;68.05;25.27;-14.68;-8.15;-231.65;-43.21;9.01;-41.69;27.27;-12.1;50.7;12.45;68.19;3.05;9.57;-202.81;-27.1;91.59;11.95;1.8;-1.26
1;123.94;-23.16;7.31;226.48;28.48;-11.53;-10;-248.71;-71.83;9.67;425.77;15.18;-9.22;29.68;-24.14;70.62;4.08;6.42;-157.98;-33.3;80.78;-1.9;6.2;0.2
1;-116.91;-1.72;7.48;64.84;25.15;-20.1;-7.44;-243.59;-50.02;2.26;-44.59;32.43;-11.36;47.46;28.98;81.55;2.71;11.77;-186.4;-20.66;148.95;12.68;1.97;-1.4
1;104.39;-28.78;6.66;219.21;40.06;-7.13;-13.93;-296.51;-106.2;6.74;377.64;16.76;-9.65;43.32;-26.7;102.25;4.78;5.95;-216.43;-33.26;144.28;-1.01;6.38;-0.29
1;-117.98;2.32;7.09;61.54;25.56;-17.16;-5.74;-237.58;-38.36;10.55;-51.5;23.75;-11.89;60.49;23.54;76.57;3.49;9.91;-184.25;-30.69;168.6;10.31;1.55;-0.94
1;103.01;-32.8;7.58;216.83;43.78;-11.04;-10.62;-291.85;-113.38;10.8;381.87;15.09;-9.58;24.52;-21.1;87.61;4.57;6.29;-206.3;-34.4;128.95;0.24;6.82;0.48
1;-119.12;5.1;8.27;53.8;25.98;-11.92;-8.6;-234.02;-50.8;8.96;-58.02;25.68;-11.74;70.13;31.12;74.39;3.26;9.91;-175.44;-22.04;145.85;15.11;1.9;-1.17
1;112.54;-35.05;6.93;216.61;40.18;-11.37;-8.53;-226.89;-128.45;5.38;415.02;16.76;-8.56;32.39;-22.88;90.04;3.67;6.39;-210.09;-30.47;118.4;0.61;5.62;0.02
1;-119.26;10.08;8.44;70.88;25.48;-14.67;-7.66;-283.15;-35.84;8.46;-49;35.82;-11.54;56.7;7.87;88.37;2.73;12.01;-235.69;-33.91;126.23;18.56;2.42;-0.85
1;105.49;-21.13;7.84;232.24;43;-9.13;-9.82;-317.57;-99.32;6.46;409.8;18.3;-10.03;37.65;-22.65;67.19;4.68;6.75;-124.07;-35.2;124.37;-1.07;7.01;-0.31
1;-112.79;-1.38;7.03;71;26.37;-15.24;-9.09;-238.74;-50.94;5.72;-26.69;27.62;-11.53;39.25;30.58;71.81;2.85;10.52;-163.39;-26.08;191.92;11.2;1.75;-0.89
1;97.84;-30.21;7.43;228.53;42.7;-10.8;-8.57;-292.75;-110.93;9.32;401.41;21.33;-9.85;26.32;-30.41;75;4.45;7.27;-140.91;-33.09;122.6;-1.55;6.4;0.19
1;-111.04;-0.49;6.33;61.31;23.6;-12.36;-7.72;-227.38;-50.15;4.53;-44.29;28.6;-11.33;35.44;25.03;65.21;2.4;10.34;-168.3;-22.31;128.99;10.77;2.14;-0.87
1;105.51;-23.47;8.79;233.2;42.36;-10.03;-15.87;-299.58;-99.12;7.83;420.9;16.75;-10.1;53.59;-23.64;85.47;5.76;5.96;-188.74;-35.97;105.34;-0.03;6.71;-0.51
1;-126.35;-9.51;8.13;63.29;21.39;-16.73;-6.96;-238.17;-52.94;5.83;-40.3;33.75;-11.87;66.63;37.44;97.06;2.67;11.75;-224.56;-22.21;158.69;15.74;1.62;-0.93
1;111.1;-17.91;6.5;232.22;32.96;-8.56;-8.76;-339.48;-87.13;4.45;409.65;17.3;-9.16;33.08;-27.4;59.95;3.72;5.92;-121.61;-25.76;97.59;0.25;6.48;-0.27
1;-121.76;5.63;6.21;74.56;21.91;-10.88;-7.94;-255.53;-22.21;2.52;-51.16;29.38;-11.78;36.1;13.83;61.81;2.14;10.04;-164.04;-20.49;114.9;4.75;2.68;-1.02
1;115.26;-29.08;9.06;236.71;38.81;-10.35;-15.6;-268.53;-90.71;7.67;434.25;15.4;-9.22;41.86;-13.92;77.47;4.73;5.6;-230.99;-36.04;79.96;-0.24;6.8;0.2
1;-117.52;7.52;7.19;59.54;25.52;-17.14;-7.07;-269.21;-24.41;2.44;-60.45;30.36;-10.93;61.34;14.88;82.78;2.57;10.69;-192.1;-22.31;107.09;11.61;2.69;-0.93
1;101.25;-25.31;8.08;232.86;43.4;-9.21;-12.78;-312.75;-99.9;9.25;428.57;14.35;-10.13;53.99;-12.18;83.63;4.77;6.25;-175.25;-36.33;159.51;-0.43;6.45;0.2
1;-114.39;3.23;7.71;65.16;25.58;-17.66;-7.32;-240.25;-50.13;3.85;-29.66;29.6;-10.96;68.25;14.72;68.56;2.9;11.12;-185.9;-20.03;86.26;17.59;2.06;-0.74
1;106.36;-35.19;8.02;229.83;53.36;-7.23;-8.18;-307.65;-135.19;9.61;420.63;17.31;-9.42;53.49;-8.16;92.86;4.28;6.6;-210.99;-35.33;185.4;-0.79;6.45;0.31
1;-108.07;9.56;7.8;67.17;26.7;-25.08;-10.26;-247.5;-43.04;8.18;-30.52;35.84;-11.13;66.24;9.27;87.51;3.15;13.1;-190.98;-26.63;124.91;15.01;2.63;-1.02
1;93.83;-29.43;6.56;227.87;50.39;-11.08;-8.52;-288.64;-142.95;7;404.27;19.21;-9.35;42.17;-20.7;97.49;4.33;7.7;-140.06;-20.38;182.8;-0.35;6.25;-0.5
1;-115.37;5.08;5.16;75.94;24.69;-22.58;-3.89;-249.89;-25.6;3.38;-33.92;23.25;-12.02;52.79;11.93;74.15;1.82;10.69;-155.67;-25.03;99.65;-2.13;2.03;-0.64
1;100.76;-42.86;7.33;228.92;48.48;-1.61;-12.79;-329.74;-117.13;6.49;401.35;18.19;-9.11;20.8;-11.78;67.18;4.38;5.14;-173.29;-32.95;105.04;-2.05;7.26;0.6
1;-115.47;11.21;6.33;74.42;23.13;-18.15;-4.39;-264.07;-22.29;5.79;-32.97;23.54;-12.12;50.94;14.5;60.17;2.25;11.26;-115.96;-27.42;105.54;2.18;2.35;-0.66
1;102.79;-31.04;8.09;236.39;49.19;-9.34;-9.28;-312.39;-123.04;7.79;411.3;15.41;-9.53;32.84;-13.65;83.18;4.2;6.33;-205.44;-33.03;116.47;0.99;6.6;0.41
1;-116.84;8.99;6.17;64.83;26.14;-17.59;-5.68;-243.56;-28.79;3.99;-38.57;32.85;-11.61;56.8;41.23;77.43;2.47;11.49;-156.38;-20.63;157.54;10.47;1.83;-1.41
1;113.44;-19.37;7.48;236.98;37.28;-11.55;-8.4;-273.88;-84.72;7.21;431.73;15.71;-8.95;35.28;-27.93;59.26;4.24;6.07;-138.27;-34.14;71.44;-0.35;6.85;0.01
1;-127.01;3.16;7.63;70.59;24.48;-17.35;-9.39;-248.86;-44.91;5.36;-57.37;37.45;-11.6;54.21;13.84;91.14;2.78;12.36;-275.09;-29.79;105.78;16.91;2.26;-1.4
1;114.11;-23.73;7.53;224.94;40.08;-12.33;-10.06;-299.07;-87.17;9.03;384.51;19.22;-9.34;50.53;-14.69;62.24;4.03;5.55;-130.58;-36.55;83.76;-2.92;7.29;0.43
1;-117.15;3.2;8.19;70.86;25.18;-18.27;-9.35;-237.68;-44.86;6.77;-31.12;31.89;-11.49;60.44;14.86;74.47;3.05;11.41;-222.18;-25.47;123.87;15.2;1.58;-1.59
1;118.38;-30.5;6.18;226.36;42.22;-11.13;-5.88;-319.04;-98.3;9.58;403.07;19.33;-9.68;37.57;-15.71;65.51;3.66;5.92;-162.01;-33.24;104.96;-1.95;6.77;0.67
1;-124.17;3.67;8.37;72;25.08;-15.44;-10.11;-228.85;-66.2;6.42;-20.74;36.55;-11.75;50.59;19.46;79.16;3.22;12.38;-197.35;-23.87;114.99;14.4;1.94;-1.1
1;95.76;-26;7.14;209.92;52.69;-8.25;-17.8;-272.68;-105.47;12.88;380.78;15.68;-8.95;57.13;-24.38;89.25;5.01;5.27;-243.86;-36.33;100.74;-1.89;6.8;0.16
1;-124.19;1.58;8.69;66.42;28.88;-22.25;-8.19;-241.81;-62.05;5.88;-33.68;29.55;-11.68;82.95;10.09;75.21;2.98;11.1;-216.73;-21.03;115.72;20.47;1.37;-1.68
1;139.9;-24.79;7.99;234.49;41.94;-9.62;-12.42;-259.67;-100.71;9.38;439.53;22.47;-8.78;71.22;-11.67;78.09;4.46;7.22;-158.57;-37.07;109.83;0.05;7.31;0.9
1;-105.86;5.21;9.45;66.63;31.04;-23.68;-8.36;-245.46;-51.15;3.68;-35.9;29;-10.12;71.14;5.11;79.61;2.63;11.74;-202.33;-22.3;95.36;22.89;2.69;-1.03
1;90.16;-37.96;7.44;229.64;52.87;-10.02;-12.66;-319.9;-143.69;8.14;408.7;14.14;-9.67;54.55;6.68;86.79;4.8;5.82;-192.6;-32.14;178.64;0.33;5.51;-0.07
1;-117.49;14.81;7.42;65.58;25.6;-19.11;-6.59;-238.93;-31.95;5.1;-42.91;36.55;-11.8;69.72;10.77;94.97;3.09;12.04;-263.29;-29.6;174.9;14.3;1.79;-0.83
1;111.87;-33.54;6.68;227.14;53.52;-9.97;-8.73;-267.91;-112.37;6.34;408.47;18.38;-8.82;48.08;-8.78;90.79;4.25;6.28;-176.23;-30.02;129.03;2.64;7.05;0.37
1;-106.62;12.16;6.22;59.48;26.23;-20.41;-3.46;-224.12;-26.11;7.15;-44.18;32.02;-11.6;58.39;3.6;83.55;1.81;12.12;-236.24;-27.21;93.38;8.68;2.13;-0.79
1;78.64;-19.26;6.66;225.53;45.64;-9.59;-13.45;-320.3;-91.83;6.8;415.89;19.89;-9.76;59.54;-24.32;84.72;5.08;6.44;-151.49;-30.19;204.61;-0.87;6.13;-0.56
1;-115.68;-6.87;6.18;61.68;25.62;-20.31;-6.83;-233.34;-56.46;6.19;-47.03;29.72;-12.08;47.6;27.36;84.12;2.59;11.57;-234.06;-19.28;150.38;10.05;1.66;-1.2
1;127.94;-34.05;7.72;227.13;43.21;-14.96;-8.43;-274.41;-100.43;9.88;421.86;16.17;-8.85;43.53;-7.84;56.81;4.58;5.49;-126.87;-36.28;89.61;0.46;6.93;0.89
1;-122.01;4.93;7.87;76.81;24.03;-16.7;-9.49;-250.43;-45.85;5.29;-35.33;38.06;-11.75;49.89;23.72;81.83;2.55;12.87;-243.48;-26.91;111.8;13.79;1.96;-1.53
1;96.22;-10.48;6.41;221.18;36.84;-13.38;-5.4;-329.16;-83.54;6.55;381.58;21.11;-8.69;52.48;-20.97;101.17;3.46;7.5;-212.66;-27.35;155.72;-0.01;6.66;-0.23
1;-115.03;2.65;5.82;73.81;18.55;-17.51;-7.77;-247.47;-24.83;3.29;-40.63;33.07;-11.32;40.86;9.08;79.49;1.95;11.17;-198.83;-19.33;114;7.39;3.09;-0.91
1;113.66;-26.11;7.85;244.78;40.91;-12.88;-11.74;-285.56;-89.82;7.33;453.34;15.5;-10.02;30.04;-5.51;65.45;4.83;5.84;-133.58;-35.07;108.89;-1.97;6.61;0.19
1;-117.26;7.35;7.66;76.5;24.37;-23.24;-5.79;-272.04;-33.29;2.67;-26.7;35.18;-11.23;53.59;21.88;81.99;1.94;13.23;-200.2;-19.61;124.71;15.14;1.96;-1.49
1;106.54;-26.16;7.88;237.66;49.77;-16.64;-6.86;-281.83;-126.11;7.75;430.21;24.21;-9.48;51.92;-16.48;92.04;4.41;9.07;-153.69;-35.41;167.57;0.69;5.94;0.27
1;-114.53;2.43;8.65;70.69;24.34;-18.67;-13.12;-234.66;-44.55;4.65;-29.9;35.75;-11.51;45.98;29.34;99.56;3.94;12.79;-252.65;-28.21;150.93;15.27;2.19;-1.47
1;102.31;-37.24;6;228.51;55.52;-9.46;-11.2;-249.7;-156.33;8.34;421.6;18.46;-9.19;40.7;-44.03;109.07;5.2;7.51;-207.44;-30.13;199.13;0.48;6.2;0.29
1;-116.18;-3.27;8.56;71.22;25.39;-19.69;-8.36;-239.95;-51.76;6.43;-32.4;31.15;-11.93;41.15;25.88;80.92;3.23;11.34;-196.58;-31.53;145.03;17.39;1.76;-1.15
1;115.71;-26.28;7.32;238.81;44.78;-8.41;-14.52;-317.01;-108.86;7.62;440.82;19.28;-9.7;37.83;-31.74;72.17;5.25;7.02;-175.98;-33.12;100.93;-0.86;6.56;0.01
1;-115.24;-1.3;8.13;77.95;21.72;-13.68;-7.01;-247.39;-30.98;3.11;-10.36;32.19;-11.05;62.23;39.58;86.88;3.23;11.34;-152.51;-21.14;231.5;17.08;2.78;-1.08
1;94.88;-30.13;6.74;225.93;51.79;-12.84;-9;-301.41;-139.34;8.87;396.9;18.12;-9.4;39.45;-25.67;111.78;4.3;7.47;-249.99;-35.03;219.49;0.82;5.56;0.08
1;-108.96;13.71;8.46;91.03;26.13;-22.75;-8.45;-241.25;-38.06;10;39.06;33.55;-11.17;68.72;19.12;85.25;3.45;13.55;-186.73;-30.47;140.42;14.71;0.91;-1.48
1;96.18;-36.41;8.03;243.46;52.32;-12.47;-9.46;-293.26;-132.96;11.17;439.52;16.45;-9.66;49.34;-22.77;91.36;4.25;6.64;-209.56;-34.7;154.69;-1.38;5.66;0.59
1;-120.62;4.54;8.33;76.74;25.36;-19.9;-12.3;-246.02;-59.83;4.14;-21.58;38;-11.2;70.14;23.51;93.92;3.22;13.12;-245.84;-21.56;166.24;21.85;2;-1.47
1;98.5;-31.11;7.92;235.88;47.78;-19.02;-13.8;-333.42;-110.01;6.89;409.83;14.78;-9.5;42.67;-15.1;75.49;4.51;6.11;-161.97;-35.02;134.23;1.37;5.48;0.16
1;-111.77;6.81;9.19;73.35;26.92;-16.59;-10.3;-275.49;-58.46;3.98;-16.19;40.18;-10.74;78.53;11.58;107.39;2.76;13.8;-335.81;-20.12;195.5;25.67;2.38;-1.37
1;100.55;-21.86;8.07;229.68;47.78;-11.09;-15.55;-284.31;-115.72;7.07;423.32;18.27;-9.43;56.26;-25.14;97.96;5.25;8.44;-203.05;-36.15;177.15;0.76;6.26;-0.59
1;-111.47;-4.53;8.83;72.9;29.59;-20.67;-9.02;-236.56;-60.82;5.16;-18.16;36.2;-11.41;56.56;25.82;87.83;3.93;12.52;-242.56;-25;173.5;19.61;1.62;-1.05
1;105.87;-29.24;8.55;240.81;53.89;-13.62;-11.8;-330.45;-147.64;9.36;430.57;19.16;-9.95;48.4;-11.19;94.01;5.02;8.04;-180.32;-32.64;155.39;2.3;6.2;0.17
1;-108.94;10.23;9.09;72.03;26.46;-16.2;-11.68;-225.34;-52.32;2.45;-27.35;37.06;-10.63;86.61;16.59;90.68;2.93;12.45;-255.37;-20.24;188.57;21.72;1.73;-1.42
1;108.41;-30.27;8.53;233.75;50.31;-14.44;-12.48;-302.92;-120.77;8.98;423.81;19.55;-9.63;48.08;-18;70.87;5.22;7.27;-116.99;-36.24;148.15;1.84;6.81;-0.03
1;-115.92;3.96;10.52;71.98;26.66;-19.55;-12.57;-266.07;-64.77;6.75;-25.94;41.17;-11.11;66.67;31.47;103.63;3.9;13.2;-298.17;-27.41;161.83;23.7;1.64;-1.41
1;103.15;-37.34;7.52;223.8;49.66;-13.74;-14.62;-293.91;-111.92;5.64;399.52;14.76;-9.64;38.41;-30.51;67.16;4.47;6.7;-164.04;-33.99;96.47;-0.92;5.81;-0.01
1;-118.17;5.43;8.79;78.12;27.62;-17.88;-7.95;-269.3;-39.36;5.31;-31.27;41.47;-10.83;67.11;14.29;98.6;3.44;13.48;-301.15;-23.98;131.84;20.31;1.55;-0.97
1;109.13;-30.22;8.26;236.73;43.29;-20.32;-9.27;-306.11;-119.88;7.71;422.58;20.98;-9.79;35.62;-7.72;106.22;4.37;7.5;-223.91;-33.21;155.35;2.43;6.07;0.04
1;-122.96;1.99;7.98;75.31;26.69;-20.68;-10.68;-251.26;-59.99;3.18;-44.19;41.84;-11.67;51.19;-2.22;102.07;2.85;13.42;-306.76;-22.72;139.58;17.44;1.35;-1.62
1;137.94;-21.37;8.86;251.98;38.7;-1.37;-16.52;-297.66;-94.68;4.68;460.09;18.29;-8.14;45.14;-2.54;74.98;5.14;5.29;-163.77;-33.78;114.86;2.61;8.41;-0.39
1;-115.56;-0.19;8.53;71.08;24.56;-19.29;-7.12;-252.1;-58.43;5.31;-30.13;37.5;-11.51;64.32;30.23;95.99;2.91;12.68;-311.97;-33.44;130.14;18.41;1.51;-1.2
1;106.97;-39.46;6.62;234.28;53.99;-8.99;-7.66;-302.28;-152.45;7.8;432.1;13.95;-9.06;47.2;-10.3;92.36;3.56;5.88;-214.15;-27.69;124.4;0.67;5.56;0.72
1;-116.12;21.01;8.58;79.76;24.82;-15.24;-6.8;-265.1;-25.66;7.03;-32.62;37.38;-11.77;67.31;3.08;83.91;3;12.08;-216.48;-33.75;93.74;14.13;1.44;-1.34
1;113.82;-34.25;7.63;238.87;47.92;-9.27;-15.99;-311.26;-115.89;8.33;447.31;15.13;-9.56;29.51;-21.82;65.82;5.32;5.4;-166.99;-36.21;83.03;0.12;7.39;0.06
1;-110.18;7.15;7.55;78.16;28.1;-16.17;-3.64;-246.84;-34.83;5.95;-25.28;34.17;-11.36;52.8;23.06;84.6;1.92;12.15;-253.1;-25.68;164.84;12.28;1.66;-0.68
1;98.23;-24.04;6.88;235.9;49.69;-10.36;-8.38;-341.71;-134.63;7.19;419.31;29.72;-9.57;51;-24.22;109.89;4.49;9.33;-222.4;-22.67;174.1;0.05;7.44;-0.51
1;-106.16;1.65;5.61;79.27;21.66;-17.47;-5.96;-247.35;-31.86;4.95;-13.14;34.35;-11.56;40.6;10.37;82.85;2.2;12.21;-224.97;-21.96;135.6;0.34;1.31;-0.66
1;101.81;-36.43;8.26;235.26;46.86;-11.58;-11.13;-279.02;-118.38;7.71;431.24;14.84;-9.71;37.59;-13.4;83.12;4.67;5.7;-144.05;-33.88;158.14;-1.24;6.44;0.43
1;-106.67;2.07;8.35;79.43;20.17;-16.09;-8.13;-254.67;-36.13;1.74;-11.07;36.57;-11;39.14;27.44;76.35;2.39;12.55;-226.12;-20.63;119.87;14.43;1.84;-1.34
1;107.75;-25;7.96;229.59;44.17;-12.51;-10.12;-329.1;-90.52;10.08;409.54;14.47;-9.42;53.93;-18.35;45.31;4.2;5.99;-134.96;-34.17;52.63;-0.47;6.69;0.35
1;-120.96;5.11;7.84;71.6;28.45;-16.83;-10.99;-242.2;-50.8;4.47;-39.64;35.74;-11.54;62.5;16.68;86.9;3;12.08;-239.97;-21.29;202.25;18.87;2.68;-1.33
1;102.25;-33.12;8.1;238.74;48.04;-13.21;-14.92;-261.56;-124.27;9;435.54;16.26;-9.55;47.92;-26.91;93.47;5.02;6.21;-172.27;-36.27;182.39;1;5.95;0.62
1;-109.45;1.21;8.1;78.47;28.99;-20.61;-9.14;-242.29;-55.59;4.81;-9.71;35.73;-10.95;56.88;29.49;86.54;3.46;12.91;-224.47;-21.76;132.16;17.77;1.57;-1.74
1;111.29;-34.32;7.55;237.52;44.58;-10.17;-12.22;-312.23;-104.67;12.59;436.9;16.54;-9.4;33.55;-18.7;76.23;5.41;5.67;-219.11;-36.49;102.55;-0.07;6.94;0.4
1;-111.28;12.95;10;75.91;33.61;-20.12;-8.79;-241.59;-68.17;9.75;-25.74;41.03;-11.13;92.49;15.41;90.29;3.18;13.65;-275.78;-24.58;134.03;22.51;1.27;-1.3
1;96.85;-35.95;7.3;234.01;52.61;-8.51;-12.17;-275.07;-141.21;7.82;428.18;19.61;-9.35;35.34;-13.43;100.17;4.5;7.33;-233.62;-33.62;138.2;1.04;6.16;0.16
1;-118.02;8.28;9.71;71.6;29.04;-21.32;-6.66;-245.77;-58.5;10.12;-17.26;36.69;-11.78;82.55;16.4;101.08;3.51;13.39;-265.99;-32.25;154.65;22.38;1.55;-1.03
1;99.28;-33.77;7.8;233.37;56.6;-9.18;-11.01;-300.26;-134.16;7.96;417.75;17.92;-9.76;38.3;-27.54;100.44;4.87;7.79;-201.56;-33.63;165.61;1.62;5.81;0.09
1;-119.32;0.48;7.88;75.57;23.6;-20.08;-7.28;-238.83;-43.29;4.1;-19.22;34.59;-11.14;43.91;18.04;80.95;2.48;12.43;-198.6;-20.46;169.37;17.55;2.18;-0.99
1;105.74;-40.65;6.92;225.83;55.63;-8.02;-10.24;-251.2;-146.1;7.9;418.05;17.15;-8.73;37.52;-12.11;82.33;4.42;5.85;-159.35;-30.64;142.87;1.3;6.66;0.68
1;-106.6;6.79;8.44;82.55;28.93;-24.69;-5.09;-232.51;-42.25;6.78;8.73;31.8;-11.47;66.78;4.9;86.58;2.72;13.86;-187.76;-32.29;123.68;14.26;1.03;-1.07
1;92.27;-32.65;8.21;251;48.85;-6.92;-16.93;-311.04;-122.8;8.43;453;17.97;-9.49;24.57;-5.28;86.45;5.58;6.49;-168.49;-35.54;118.13;1.61;6.44;-0.25
1;-102.34;8.96;8.41;85.08;28.96;-16.11;-6.48;-255.58;-40.1;6.18;-3.16;39.33;-10.32;57.04;5.04;78.81;2.7;12.47;-266.57;-31.4;83.13;17.32;2.14;-0.65
1;96.58;-24.05;8.24;251.21;36.74;-8.49;-15.54;-328.82;-84.32;8.46;450.88;16.13;-10.7;30.81;-5.51;83.02;5.44;6.31;-192.59;-37.02;114.73;-2.03;6.64;-0.23
1;-117.89;7.85;9.01;79.03;31.68;-20.3;-7.78;-246.91;-57.24;7.01;-9.19;38.59;-11.29;82.04;24.66;95.41;3.83;13.26;-283.62;-25.84;169.3;19.01;1.15;-1.11
1;105.05;-33.61;7.78;227.6;59.38;-10.53;-12.2;-293.47;-134.92;7.75;399.96;16.98;-9.29;47.53;-33.32;85.51;5.24;6.84;-164.12;-35.62;158.99;-0.83;7.09;0.5
1;-111.35;3.09;9.08;78.16;29.36;-21.09;-9.91;-223.75;-56.66;7.07;-3.05;33.71;-11.31;63.94;22.32;85.34;3.53;12.41;-242.19;-27.39;147.78;16.22;1.41;-1.04
1;99.89;-32.52;7.9;229.04;55.58;-12.6;-8.43;-289.11;-132.81;9.18;407.26;19.28;-9.14;36.97;-23.02;62.73;4.69;6.83;-143.74;-33.16;92.67;-1.84;7.15;0.95
1;-110.72;2.89;6.64;73.32;21.86;-20.97;-6.77;-229.78;-39.27;4.11;-22.09;32.18;-11.53;54.1;14.79;78.51;2.52;12.03;-205.91;-20.19;181.71;12.3;1.82;-1.01
1;100.02;-34.2;7.16;233.25;57.21;-12.05;-7.26;-286.86;-142.08;9.01;426.97;16.02;-9.31;38.82;-12.38;95.4;4.59;7.14;-161.53;-31.84;162.4;1.91;5.82;0.77
1;-120.16;7.15;6.57;67.45;22.37;-20.03;-9.19;-240.63;-37.53;4.39;-42.89;36.91;-11.8;43.78;16.14;83.99;2.41;12.55;-222.59;-27.73;148.81;11.65;2.15;-1.07
1;109.14;-17.27;7.84;232.59;42.88;-16.68;-8.36;-322.02;-98.13;7.57;415.79;24.29;-9.3;43.45;-18.81;84.03;4.67;8.49;-111.05;-33.39;136.99;-0.13;6.96;0.06
1;-105.13;-1.11;8.7;75.65;26.43;-15.74;-14.58;-238.39;-63.39;3.82;-26.25;37.34;-10.7;34.14;25.5;90.02;3.65;12.89;-226.4;-21.53;138.13;20.24;2.32;-1.49
1;100.9;-34.99;7.45;227.92;43.52;-16.2;-10.13;-325.68;-112.75;11.07;412.61;14.96;-9.68;32.27;-6.52;94.39;4.29;6.32;-164.96;-35.55;118.9;-1.7;6.09;0.55
1;-118.72;14.52;10.16;85.25;28.87;-20.92;-12.14;-271.77;-43.95;7.98;-27.38;38.65;-10.96;87.01;5.74;94.79;3.15;13.16;-272.68;-23.57;137.28;26.88;2.02;-1.1
1;116.69;-38.34;7.67;228.3;41.42;-7.79;-11.14;-301.08;-101.62;7.15;403.56;21.12;-8.93;19.95;-13.23;84.71;4.24;6.14;-170.86;-35.71;129.13;-0.62;7.18;0.28
1;-121.66;6.97;9.35;73.44;27.18;-22.08;-11.05;-241.66;-66.31;9.7;-36.54;40.9;-11.65;61.45;18.57;98.55;3.57;13.54;-318.43;-32.33;146.6;19.85;0.92;-1.08
1;103.47;-22.85;8.7;243.77;44.21;-14.4;-10.36;-267.46;-110.73;8.77;443.87;20.27;-9.69;47.45;-17.14;99.94;4.69;7.63;-185.3;-36.8;137.63;0.8;6.15;0.15
1;-114.85;1.01;9.28;74.7;22.03;-18.29;-9.48;-254.16;-51.18;3.44;-29.88;39.27;-11.49;43.6;14.74;85.75;3.11;13.42;-260.44;-24.24;131.83;19.68;2.07;-1.87
1;124.44;-33.98;8.51;245.1;48.58;-12.36;-8.14;-334.44;-124.99;12.15;446.21;18.89;-9.09;30.25;2.86;84.84;4.7;6.96;-134;-34.35;172.62;2.73;7.21;1.06
1;-115.35;12.56;9.66;86.81;26.85;-23.84;-16.16;-246.12;-72.91;4.99;-4.93;38.55;-11.31;71.19;14.31;92.13;4.35;14.1;-265.25;-21.16;184.32;23.91;1.82;-1.37
1;96.3;-33.42;7.56;232.13;62.09;-11.92;-9.45;-306;-156.93;7.51;408.85;20.67;-9.18;59.12;-19.75;110.64;4.44;7.31;-191.37;-33.47;246.66;3.96;5.73;0
1;-124.71;3.49;8.42;76.04;23.94;-17.04;-10.87;-238.48;-54.28;7.34;-13.71;38.37;-11.63;58.15;14.9;93.02;3.96;12.73;-251.69;-21.47;149.19;19.56;2.15;-1
1;97.43;-36.64;7.99;233.71;52.41;-16.98;-9.08;-254.83;-117.78;8.23;418.49;14.48;-8.56;53.3;-14.03;106.79;3.71;6.44;-256.47;-33.9;131.91;9.65;5.45;0.94
1;-107.78;13.69;6.14;60.36;21.38;-18.26;-4.84;-232.13;-29.21;2.57;-42.35;39.6;-11.48;47.87;35.03;72.78;2.01;12.67;-211.73;-18.93;173.92;14.87;2.41;-1.19
1;100.92;-28.08;7.66;224.22;44.98;-18.78;-8.74;-290.44;-108.08;10.65;411.41;14.37;-9.69;45.98;-16.06;95.59;4.05;7.85;-199.38;-34.26;139.23;0.5;5.96;0.44
1;-125.02;12.64;7.79;77.75;24.26;-17.78;-12.99;-240.58;-50.32;4.74;-25.39;39.35;-11.63;53.54;15.59;88.52;3.32;13.63;-225.71;-22.13;140.68;20.03;1.65;-1.76
1;123.2;-34.2;7.89;242.35;46.1;-12.4;-11.69;-323.17;-129.58;9.28;439.95;18.42;-8.79;26.31;-23.17;96.54;4.78;6.92;-189.35;-34.63;137.08;2.41;6.62;0.25
1;-117.72;8.01;8.35;80.43;26.49;-16.15;-8.6;-273.14;-51.66;8.08;-35.78;38.66;-10.89;44.66;21.79;88.34;2.97;12.83;-240.97;-25.98;124.98;19.6;2.16;-1.24
1;107.14;-28.22;8.23;235.41;46.15;-11.86;-9.23;-315.84;-108.34;7.63;420.39;19.82;-9.49;34.93;-17.87;62.51;4.64;7.55;-149.79;-35.76;83.77;-1.98;7.52;0.41
1;-117.6;4.42;9.7;74.99;25.01;-22.74;-11.71;-242.93;-52.12;5.44;-27.63;38.67;-11.82;53.01;22.3;86.36;3.78;13.63;-227.08;-26.34;191.06;20.25;1.65;-1.48
1;94.82;-39.59;8.32;237.5;66.87;-12.41;-10.87;-275.6;-149.9;9.63;413.43;18.98;-9.28;76.82;-25.86;79.71;4.73;6.91;-174.99;-35.78;178.74;-0.33;5.92;1.59
1;-121.49;0.64;10.09;69.43;22.69;-18.25;-9.83;-225.59;-64.61;4.17;-20.71;38.23;-11.75;41.97;40.05;91.53;2.86;13.59;-231.11;-22.48;206.85;25.97;1.69;-1.8
1;123.03;-25.65;8.47;243.82;48.36;-19.35;-9.39;-287.77;-118.99;10.1;444.96;26.49;-9.43;37.22;-39.2;84.15;5.15;9.95;-205.57;-34.29;126.71;1.39;6.65;0.75
1;-112.14;-1.63;10.24;79.99;29.53;-24.65;-12.95;-265.87;-72.59;5.16;-11.09;40.09;-10.74;50.56;16.99;92.12;3.69;15.13;-244.82;-23.89;121.18;26.51;2.56;-1.34
1;82.14;-34.14;7.98;241.22;56.48;-13.81;-10.37;-297.64;-124.63;9.6;433.24;15.4;-9.75;54.95;-10.45;85.84;4.77;6.46;-256.5;-32.37;129.65;0.3;5.8;0.34
1;-126.91;11.67;8.84;66.91;31.59;-20.91;-10.1;-223.63;-60.61;6.48;-32.66;39.92;-11.97;71.12;32.41;97.49;3.75;13.57;-247.87;-23.86;132.84;22.52;0.77;-2.04
1;150.89;-22.14;6.66;229.99;40.88;-13.35;-6.85;-292.38;-91.46;7.16;441.99;17.55;-8.31;48.33;-29.77;46.53;3.16;6.03;-147.75;-33.26;68.56;-0.48;8.61;0.27
1;-113.57;0.2;9.72;78.23;24.73;-24.35;-9.37;-251.28;-53.71;7.59;-25.64;37.32;-11.66;48.23;12.1;84.97;3.16;14.29;-229.4;-30.96;126.87;19.53;2.2;-0.97
1;77.62;-25.11;7.77;245.64;42.41;-12.3;-9.59;-348.08;-97.74;9.21;433.79;16.16;-9.94;45.68;-7.32;84.32;4.52;6.46;-178.24;-34.47;178.36;0.1;5.84;0.14
1;-128.05;5.97;8.32;78.93;25.97;-21.53;-10.39;-247.78;-56.62;3.97;-31.23;38.06;-11.8;69.23;24.89;100.7;3.04;12.87;-227.99;-22.93;200.99;19.65;2.32;-1.51
1;144.04;-40.38;7.08;228.14;40.23;-9.22;-8.12;-277.09;-115.08;8.86;442.85;20.58;-8.09;17.17;-23.35;101.25;3.51;6.54;-218.06;-35.18;114.95;1.69;7.27;0.61
1;-123.36;7.99;7.82;77.38;25.73;-20.4;-7.5;-251.75;-38.51;6.74;-38.04;38.51;-11.78;43.2;23.22;83.7;2.81;13.67;-207.06;-26.22;145.75;14.37;1.89;-1.26
1;93.69;-28.84;8.72;242.46;59.25;-20.07;-7.28;-338.58;-112.49;9.46;413.85;28.79;-9.57;74.69;3.52;102.94;4.32;9.02;-221.01;-36.12;187.3;-1;6.24;0.92
1;-115.16;17.93;8.23;77.96;22.82;-20.4;-10.45;-246.62;-33.42;2.31;-23.34;41.1;-11.09;62.11;17.36;88;2.6;13.81;-241.98;-21.11;159.39;18.97;2.28;-1.81
1;111.32;-37.8;8.73;244.51;50.34;-12.02;-11.61;-272.22;-135.01;9.41;437.56;18.84;-9.23;23.31;-34.35;56.68;4.89;7.11;-192.73;-36.46;64.59;0.91;6.79;0.69
1;-121.18;6.43;9.37;80.09;26.67;-28.01;-7.52;-253.53;-57.13;6.21;-14.62;37.2;-11.7;73.94;26.33;103.13;3;14.7;-249.13;-22.85;204.05;23.56;1.64;-1.51
1;109.25;-29.96;8.44;249.82;43.06;-12.19;-8.21;-316.28;-114.99;10.37;434.02;16.88;-9.41;19.4;-34.03;51.32;4.56;7.51;-121.9;-34.97;86.17;0.27;6.55;0.15
1;-128.06;1.35;9;83.48;30.15;-25.71;-11.57;-255.57;-63.97;5.68;-23.94;37.1;-12.11;53.6;19.16;93.24;3.72;14.39;-247.42;-24.7;122.79;19.62;1.33;-1.42
1;98.1;-39.71;8.57;253.31;56.02;-12.85;-9.74;-282.05;-125.97;11.84;452.47;15.27;-8.95;61;-8.15;92.25;4.25;6.02;-226.02;-35.85;149.46;5.22;5.98;1.31
1;-119.08;18.1;8.15;75.93;21.65;-22.32;-7.03;-245.26;-39.3;1.31;-26.67;36.91;-11.62;47.67;11.12;83.24;1.71;13.65;-186.8;-19.25;147.1;22.11;2.25;-1.36
1;112.9;-30.04;8.37;254.4;52.24;-19.66;-7.95;-285.32;-113.9;12.17;447.82;16.51;-9.04;86.32;-10.02;62.69;4.12;8.14;-194.22;-34.35;79.64;1.14;6.15;0.4
1;-120.85;1.7;10.36;77.27;25.21;-21.67;-9.96;-246.3;-73.62;3.26;-12.76;39.54;-10.77;56.2;11.21;92.73;2.96;14.6;-249.61;-21.83;141;28.73;2.53;-1.57
1;112.06;-15.81;8.74;266.04;49.22;-21.4;-7.97;-305.73;-112.26;11.17;471.14;23.55;-10.04;49.66;-12.08;60.04;4.77;10.06;-182.91;-34.39;115.51;2.41;5.81;-0.14
1;-125.82;-2.83;11.18;84.62;32.5;-21.23;-15.37;-266.34;-83.36;6.62;-21.6;39.77;-10.94;63.44;19.34;101.28;4.12;14.66;-274.07;-23.24;151.4;29.45;2.59;-1.71
1;116.61;-31.62;7.66;251.68;49.64;-8.92;-9.62;-329.68;-123.57;10.48;460.05;18.18;-9.75;45.8;-9.13;107.46;4.57;7.43;-199.2;-35.94;198.39;0.51;6.41;0.37
1;-128.97;7.43;8.91;91.46;18.05;-19.1;-8;-281.08;-36.17;5.78;-30.25;36.82;-11.49;49.81;12.14;79.27;2.77;13.12;-185.49;-21.34;162.92;18.87;2.02;-1.1
1;116.45;-45.27;9.19;253.58;60.33;-9.94;-13.3;-337.66;-151.56;10.34;438.18;20.32;-9.56;40;-18.6;95.65;5.04;7.22;-241.81;-35.6;139.97;3.38;7.18;0.93
1;-125.34;4.68;10.55;86.69;29.47;-28.34;-11.13;-249.27;-56.43;5.55;-16.6;38.86;-11.48;86.98;28.17;93.59;3.72;14.77;-230.86;-23.67;199.53;24.54;1.57;-1.17
1;91.1;-36.93;8.91;253.67;55.37;-10.66;-9.26;-291.8;-137.77;9.42;435.73;19.57;-9.2;67.44;-32.93;95.55;4.45;7.8;-260.08;-33.75;117.85;9.16;6.37;0.9
1;-124.73;4.71;9.02;82.85;19.25;-30.31;-8.47;-249.73;-42.23;2.99;-13.3;32.38;-12.37;45.5;30.04;73.61;2.55;15.06;-147.37;-22.14;170.39;23.06;0.79;-1.93
1;128.15;-28.16;9.21;265.61;53.35;-11.12;-11.04;-304.01;-137.42;9.38;471.8;22.84;-9.51;23.84;-23.82;76.96;4.71;9.01;-183.46;-32.17;109.79;5.34;7.41;0.35
1;-113.2;2.82;9.29;75.53;24.94;-23.56;-7.78;-258.22;-53.87;3.08;-21.86;36.25;-11.05;50.79;10.27;71.89;2.44;14.3;-180.43;-22.19;102.49;19.93;2.36;-1.18
1;76.5;-28.23;8.45;254.03;53.15;-17.95;-11.23;-346.83;-131.35;9.18;432.04;22.5;-10.51;44.57;-12.43;99.2;5.29;9.2;-224.57;-35.28;196.59;2.62;6.08;0.16
1;-128.81;1.76;9.51;84.96;26.58;-24.9;-11.8;-249.15;-59.59;3.65;-21.1;38.31;-11.99;58.44;26.51;93.73;3.47;13.37;-248.66;-24.82;155.58;21.18;1.59;-1.69
1;147.94;-41.9;7.5;238.14;50.59;-12.23;-7.3;-314.4;-121.68;10;441.33;15.94;-8.32;41.84;-27.24;76.77;3.77;5.68;-137.45;-34.38;123.86;-0.27;8.1;1.58
1;-129.25;9.24;8.6;74.22;26.3;-29.72;-8.37;-246.29;-49.57;5.22;-35.98;38.57;-12.7;57.39;28.49;95.53;3.16;14.95;-223.64;-21.82;205.9;19.42;1.13;-1.54
1;115.07;-38.78;7.79;247.79;43.18;-10.68;-11.95;-303.92;-100.37;11.6;447.47;16.82;-9;67.69;-22.12;82.82;4.58;5.96;-236.36;-35.57;79.21;0;6.63;0.84
1;-130.48;8.36;10.32;81.84;27.14;-25.77;-6.98;-269.36;-42.82;4.31;-37.08;40.53;-11.95;83.9;19.42;104.24;3;15.1;-240.69;-23.42;188.42;23.22;1.5;-1.55
1;123.86;-27.02;7.14;247.33;36.15;-9.35;-9.37;-300.01;-97.57;12.73;448.28;18.08;-9.54;34.02;-20.15;95.1;3.84;6.75;-239.31;-34.8;106.7;-0.11;6.82;0.66
1;-125.84;8.15;10.1;84.43;30.54;-26.29;-9.46;-270.87;-64.2;6.08;-26.07;37.56;-11.39;75.98;22.81;85.4;2.97;14.2;-198.57;-23.32;128.59;24.84;1.87;-1.41
1;107.38;-36.79;6.91;245.45;54.64;-11.64;-9.11;-329.61;-144.17;11.35;445.01;17.8;-10.16;45.92;-19.87;92.49;4.34;6.73;-229.55;-31.91;126.32;-0.69;6.42;0.61
1;-133.97;5.92;10.71;74.37;29.85;-24.41;-10.94;-256.86;-69.81;6.96;-31.94;38.96;-11.87;83.82;31.21;102.37;3.9;14.7;-236.83;-25;175.08;27.64;1.49;-1.65
1;119.77;-27.07;7.54;240.01;50.36;-10.39;-10.03;-303.66;-111.64;10.65;440.09;22.01;-9.44;26.91;-38.55;66.55;4.96;7.2;-137.36;-35.45;86.9;-0.12;7.59;0.5
1;-127.5;0.03;10.24;86.56;25.98;-30.96;-8.96;-250.3;-50.62;5.21;-11.08;32.19;-11.85;68.39;13.6;76.09;3.54;14.18;-179.92;-24.35;146.55;21.82;1.59;-1.33
1;118.33;-39.87;9.37;249.08;56.96;-11.98;-11.84;-365.06;-123.52;12.99;423.05;16.44;-9.17;55.35;-16.45;69.17;5.3;6.67;-178.89;-36.46;131.27;0.65;7.37;1
1;-123.18;-1.33;12.17;84.55;34.93;-25.28;-13.04;-258.18;-88.4;7.1;-15.95;38.79;-11.56;105.65;29.12;95.94;4.17;14.85;-272.68;-24.16;181.35;31.29;1.66;-1.62
1;91.96;-30.25;9.02;254.9;62.04;-18.21;-9.66;-288.75;-134.37;9.61;441.68;21.5;-9.13;87.38;-28.71;86.09;4.84;9.66;-235.91;-34.12;126.64;16.98;6.25;0.76
1;-132.04;2.69;10.27;69.22;23.31;-22.97;-10.03;-233.14;-57.51;7.91;-38.21;35.43;-12.71;40.22;38.8;72.09;3.74;14.39;-213.3;-26.16;173.27;28.95;1.88;-1.92
1;133.36;-28.45;8.52;244.72;49.56;-9.27;-11.33;-331.48;-112.89;9.39;444.33;18.62;-9.26;36.4;-33.31;63.22;4.63;6.59;-158.52;-35.66;78.93;2.49;8.04;0.33
1;-126.38;3.33;9.77;84.67;27.66;-25.01;-7.2;-270.5;-49.62;5.56;-29.9;34.14;-11.78;65.99;21.97;77.93;2.32;13.34;-204.92;-22.54;159.33;20.73;1.62;-0.83
1;106.49;-33.07;8.94;251.83;47.32;-18.82;-9.42;-310.21;-110.03;12.18;443.24;18.19;-9.58;69.56;-15.95;69.19;4.65;8.22;-146.97;-35.84;117.14;0.89;7;0.49
1;-129.71;6.88;10.05;74.44;29.75;-25.39;-11.61;-244.2;-57.21;3.79;-37.37;40.25;-11.78;68.54;25.6;92.93;3.48;14.28;-260.89;-23.65;148.48;24.72;1.48;-1.78
1;119.23;-32.03;9.06;250.6;52.57;-15.26;-10.58;-301.18;-126.62;11.3;447.57;20.19;-9.16;48.83;-19.43;84.31;4.89;8.62;-181.94;-33.11;139.87;1.54;7.23;0.79
1;-128.84;1.57;9.73;77.48;25.42;-22.05;-13.02;-244.26;-51.61;5.44;-30.08;39.74;-11.72;51.18;32.4;99.72;3.58;14.9;-259.23;-26.92;181.2;21.9;2.15;-1.76
1;103.12;-32.02;8.3;244.33;53.26;-10.44;-9.45;-312.42;-117.2;13.43;434.07;17.53;-9.9;92.31;-23.08;92.35;4.42;6.47;-228.07;-35.18;109.4;-1.38;6.56;1.17
1;-134.78;6.24;10.9;80.95;24.23;-25.13;-10.45;-258.22;-53.35;4.67;-27.91;36.75;-11.99;66.53;19.21;88.65;3.52;14.25;-213.84;-25.3;158.19;27.47;1.09;-1.94
1;138.93;-38.37;8.58;250.37;54.91;-14.88;-7.04;-313.69;-133.27;11.91;454.64;20.14;-9.02;55.91;-13.32;68.07;4.27;7.48;-167.16;-34.69;112.48;2.4;7.91;1.23
1;-132.54;12.47;10.27;78.28;26.24;-18.77;-6.13;-263.13;-42.31;2.74;-50.95;39.58;-11.7;72.49;11.65;81.68;2.91;14.01;-201.53;-23.35;158.49;22.39;1.93;-1.18
1;113.21;-26.46;9.37;268.2;46.15;-13.6;-10.65;-293.47;-102.99;10.18;477.8;17.84;-9.66;87.1;-9.54;103.92;4.56;7.76;-281.07;-36.31;178.02;2.27;6.33;-0.24
1;-135.27;6.65;11.22;83.5;28.89;-24.29;-6.02;-267.4;-49.37;5.39;-30.04;38.33;-11.97;85.35;24.94;103.95;2.65;15.49;-251.52;-24.04;181.73;27.66;1.01;-1.51
1;123.98;-31.22;9.05;259.89;54.93;-16.56;-9.3;-324.66;-128.05;11.02;455.3;20.92;-9.54;38.53;-11.21;67.02;4.57;8.11;-143.05;-33.9;118.74;4.51;6.5;0.09
1;-131.43;3.22;10.93;85.62;26.74;-26.15;-9.62;-279.75;-58.94;5.74;-27.37;40.06;-11.78;78.96;23.16;96.32;3.7;15.01;-251.48;-23.06;184.22;28.46;1.66;-1.51
1;111.37;-22.25;8.76;257.06;49;-18.07;-10.88;-275.41;-89.35;10.86;463.12;18.67;-9.1;70.66;-25.6;92.25;4.8;8.14;-229.13;-36.4;105.2;2.65;5.79;0.43
1;-115.99;-5.9;10.91;81.79;26.2;-25.38;-8.03;-237.94;-68.58;6.89;-3.4;40.96;-11.26;39.63;28.91;93.45;3.53;14.88;-284.75;-23.23;135.02;27.46;2.26;-1.7
0;-109.13;-0.03;4.93;61.37;21.38;-12.49;-5.33;-230.91;-75.04;10.44;-45.53;12.51;-12.3;40.37;13.74;61.05;3.12;6.1;-138.74;-30.19;80.07;-2.91;0.3;-0.29
0;113.52;-21.48;6.7;228.19;38.7;-14.24;-10.02;-228.29;-110.8;4.62;413.29;16.57;-9.65;42.76;-4.71;127.39;3.75;7.51;-218.9;-21.6;200.49;2.8;2.66;-1.19
0;-114.04;0.51;4.21;61.43;30.07;-14.5;-7.89;-241.21;-81.67;7.59;-44.08;15.08;-12.21;51.7;20.48;94.71;2.93;7.93;-250.03;-28.62;115.32;-3.46;-0.35;-0.81
0;107.65;-25.08;6.43;234.64;37.44;-13.65;-10.6;-238.06;-92.3;4.69;401.56;17.34;-9.82;37.85;-17.78;141.23;3.7;8.02;-340.54;-23.09;225.5;0.87;2.57;-1.67
0;-117.59;0.82;5.04;65.08;22.86;-13.55;-10.45;-250.82;-51.24;9.17;-50.91;19.65;-12.31;40.44;22.99;104.73;3.49;9.57;-259.9;-31.13;125.97;-2.02;0.71;-0.94
0;124.68;-17.41;6.08;235.86;36.48;-12.01;-11.2;-222.78;-105.45;6.14;426.08;17.09;-10.68;50.09;-16.9;129.13;4.5;8.32;-244.93;-24.34;262.8;-1.03;3.47;-1.38
0;-119.7;0.74;6.08;66.24;31.92;-15.42;-8.04;-250.99;-88.51;9.92;-42.75;24.54;-12.34;52.98;17.48;94.88;3.02;9;-176.7;-33.5;134.89;4.02;-0.02;-0.86
0;131.12;-24.19;5.07;241.28;32.64;-16.7;-12.71;-223.25;-88.02;6.12;439.25;17.82;-10.92;37.64;-18.45;142.04;4.24;8.67;-330.93;-19.83;251.2;-2.83;3.11;-0.94
0;-122.96;8.18;5.6;55.93;34.29;-18.32;-8.84;-234.36;-91.46;10.57;-43.61;15.59;-12.79;58.17;22.68;91.75;3.76;9.2;-308.56;-35.17;107.31;-6.04;-1.23;-1.05
0;104.73;-27.81;6.5;243.67;31.52;-13.66;-10.93;-239.98;-97.81;5.63;402.32;18.9;-11.24;29.08;-37.23;153.76;4.31;8.02;-260.74;-31.78;291.83;-0.43;4.12;-1.17
0;-125.88;4.3;5.63;70.63;23.67;-18.54;-7.92;-252.68;-39.36;8.15;-46.84;15.81;-12.26;48.67;41.69;65.67;3.17;9.84;-117.9;-31.89;119.64;0.65;-1.19;-1.1
0;123.93;-34.18;6.82;241.55;29.02;-13.69;-9.44;-239.35;-102.25;5.16;404.65;16.87;-10.42;23.6;-31.84;107.98;3.95;6.53;-325.11;-25.16;186.27;0.86;3.51;-0.79
0;-122.56;10.21;6.82;59.6;28.53;-15.28;-10.21;-246.96;-75.9;12.03;-54.36;19.19;-12.82;54.13;27.97;72.72;3.85;9.07;-238;-35.98;160.52;2.82;-0.74;-0.8
0;126.88;-20.28;5.58;238.93;28.16;-11.98;-11.17;-229.93;-64.48;4.52;415.75;12.31;-10.19;31.25;-27.45;116.92;4.14;6.8;-298.64;-20.45;152.55;-1.14;3.88;-1.58
0;-122.62;3.95;7.47;64.68;30.62;-13.74;-9.74;-267.4;-79.45;11.42;-50.84;27.3;-12.73;52.62;28.96;76.48;3.48;9.76;-223.02;-36.97;126.32;6.54;0.09;-0.47
0;111.56;-22.3;5.87;234.21;28.95;-12.11;-10.98;-238.11;-88.37;8.21;408.53;14.29;-11.78;28.72;-36.04;118.4;4.43;7.41;-216.75;-32.1;242.53;-3.31;3.33;-1.27
0;-124.87;5.49;5.86;67.44;24.86;-18.15;-7.21;-244.24;-34.97;9.91;-50.97;19.75;-12.19;50.1;39.05;64.21;3.02;9.93;-66.85;-32.41;129.3;2.33;-0.97;-0.98
0;131.58;-36.7;7.06;243.3;33.13;-11.95;-9.21;-221.59;-113.9;5.01;418.57;16.88;-10.43;24.66;-12.94;128.96;3.76;7.68;-394.09;-24.17;193.93;1.72;2.82;-0.93
0;-133.09;14.48;6.15;69.36;32.04;-21.34;-10.6;-246.98;-65.91;11.75;-40.18;24.71;-13.18;69.22;18.77;110.62;4.5;11.57;-408.81;-33.54;134.24;-3.1;-1.55;-1.31
0;143.16;-23.64;6.6;260.81;28.79;-9.28;-10.24;-247.82;-90.16;4.37;441.69;15.67;-10.52;26.59;-28.57;116.76;3.74;7.82;-232.36;-25.65;192.97;1.02;4.69;-0.88
0;-127.91;5.68;7.2;65.06;27.73;-18.54;-14.15;-248.82;-63.5;10.83;-53.66;20.15;-13.04;51.39;21.02;66.74;4.69;9.04;-187.9;-35.71;96.64;1.17;-1.79;-0.81
0;126.79;-29.6;7.07;247.45;30.64;-12.88;-9.8;-242.33;-100.71;4.87;432.38;14.03;-10.95;26.16;-29.97;96.08;3.92;6.88;-250.3;-23.84;162.26;2.5;3.24;-0.78
0;-129.53;6.14;5.77;66.68;29.3;-18.1;-10.1;-244.16;-51.32;11.79;-52.09;21.32;-12.59;55.91;27.63;82.76;4.29;10.43;-188.57;-30.92;110.31;0.86;-0.82;-0.82
0;126.87;-32.08;6.54;249.79;34.38;-14.59;-10.48;-234.2;-118.25;6.02;429.07;17.26;-10.27;28.73;-20.95;138.6;4.09;8.19;-357.55;-23.91;261.18;1.69;3.09;-0.83
0;-128.54;8.21;7.23;69.73;33.02;-21.18;-9.07;-249.24;-81.81;9.51;-40.87;21.23;-13.05;62.07;23.09;87.26;4.07;10.12;-315.29;-36.17;109.91;2.15;-1.26;-1.18
0;121.82;-35.17;6;244.26;28.95;-10.97;-10.71;-228.34;-97.08;5.22;433.5;12.81;-10.41;12.21;-36.14;116.17;4.27;6.57;-334.16;-21.59;184.09;-0.39;4.04;-0.97
0;-120.65;15.79;6.04;65.6;30.96;-16.53;-5.74;-240.73;-58.24;11.49;-41.1;17.69;-12.42;63.63;38.36;62.19;3.13;9.22;-102.97;-33.15;89.4;-0.09;-0.57;-0.74
0;118.49;-22.3;5.83;235.68;26.91;-16.43;-10.88;-233.34;-83.81;5.85;413.06;16.14;-10.87;34.57;-38.56;126.77;4.75;7.27;-284.39;-20.57;197.28;-2.53;3.58;-1.26
0;-124.55;14.49;6.17;60.03;29.75;-18.85;-5.64;-241.13;-79.33;10.09;-60.37;15.16;-12.87;63.23;40.4;69.96;3.16;9.1;-150.79;-36.07;118.55;-2.04;-0.54;-0.83
0;120.43;-27.87;5.62;232.58;28.83;-15.45;-10.68;-204.95;-75.62;4.97;406.14;14.87;-9.95;26.03;-22.28;120.25;4.16;6.54;-269.69;-20.29;173.89;-0.79;3.95;-1.26
0;-119.34;8.03;7.7;68.52;34.92;-15.68;-7.45;-261.51;-76.77;11.41;-31.43;28.25;-12.39;64.37;25.64;100.05;3.81;10.13;-298.35;-37.13;135.25;5.54;-0.01;-1.1
0;117.57;-19.71;4.67;233.73;27.11;-17.41;-11.99;-209.7;-78.68;7.17;407.57;13.51;-10.83;39.5;-29.01;131.68;4.2;7.82;-304.28;-20.81;235.05;-3.64;3.47;-1.33
0;-120.24;7.09;7.48;66.82;29.89;-16.43;-5.54;-269.01;-76.22;8.88;-49.97;19.76;-12.71;58.8;29.11;80.18;2.83;9.32;-220.02;-34.97;115.12;7.04;0.03;-0.69
0;120;-36.08;5.61;233.66;27.25;-15.21;-9.61;-237.83;-89.41;3.96;405.92;13.01;-10.72;25.63;-26.57;136.56;3.75;6.47;-350.04;-20.79;228.59;-0.76;2.95;-1.19
0;-128.26;4.92;6.19;64.52;29.38;-18.06;-7.95;-246.46;-63.57;11.61;-56.96;19.47;-12.92;56.58;25.62;108.76;3.77;10.72;-289;-31.39;165.82;2.18;-0.41;-0.84
0;116.49;-21.29;7.77;251.75;29.26;-16.23;-11.29;-254.54;-87.51;11.04;421.82;17.11;-12.04;26.02;-37.47;122.48;4.8;8.24;-224.58;-36.61;222.22;0.48;3.74;-1.02
0;-122.68;10.84;7.77;63.86;29.9;-20.06;-7;-250.19;-43.08;9.79;-57.7;23.44;-11.71;62.54;35.14;61.35;3.51;10.11;-102.65;-31.24;103.66;7.23;-0.87;-1.32
0;132.27;-30.06;7.52;243.71;31.78;-15.43;-9.71;-250.72;-97.45;5.36;433.85;14.38;-10.02;20.51;-21.4;124.01;4.43;6.75;-283.88;-22.89;216.73;0.63;3.76;-0.71
0;-125.13;2.54;7.77;71.82;31.38;-18.56;-6.99;-293.32;-66.61;8.87;-42.09;24.14;-12.67;57.84;22.45;93.64;3.13;10.58;-271.95;-33.39;130.92;9.84;0.11;-1.26
0;112.3;-33.54;6.94;241.42;35.11;-17.48;-9.66;-242.55;-109.93;6.52;412.05;16.9;-11.17;27.06;-44.23;141.21;4.2;8.14;-274.25;-27.65;283.51;1.27;3.62;-0.93
0;-120.84;5.06;6.16;61.27;32.78;-18.91;-8.85;-239.44;-51.76;12.26;-58.9;19.33;-12.29;62.61;44.91;89.37;3.59;10.63;-104.97;-32.93;161.39;3.02;-0.46;-1.12
0;122;-31.4;6.64;245.78;32.72;-15.61;-11.29;-257.17;-108.15;6.09;439.11;16.17;-10.52;22.12;-27.01;132.23;4.27;7.88;-240.92;-22.29;245.65;2.22;4.51;-1.1
0;-122.72;4.66;6.38;65.68;32.55;-16.46;-9.85;-256.89;-62.47;11.02;-44.47;22.62;-13.01;55.01;20.03;105.58;3.8;10.56;-228.35;-33.4;126.7;3.14;-0.84;-0.93
0;116.7;-34.86;6.72;253.9;33.77;-13.44;-11.07;-249.54;-113.19;6;450.3;18.37;-10.61;19.56;-27.2;138.65;4.1;8.44;-332.69;-25.07;247.38;0.61;3.68;-0.83
0;-122.32;9.76;6.19;66.39;20.6;-16.12;-8.97;-261.84;-23.67;10.28;-57.54;21.31;-11.98;40.31;22.26;77.86;3.21;10.45;-203.41;-35.09;112.74;1.46;0.85;-0.62
0;99.1;-22.82;5.97;234.32;28.36;-8.28;-11;-235.13;-66.09;4.64;407.23;15.59;-10.34;25.11;-23.14;105.02;3.69;6.26;-234.8;-24.81;199.47;-0.5;4.16;-1.25
0;-113.28;4.23;7.43;62.56;24.88;-14.9;-8.1;-237.4;-39.8;10.47;-49.15;27.55;-12.45;48.79;30.09;80.76;3.17;10.1;-154.73;-35.12;131.82;6.27;0.58;-0.7
0;109.78;-33.77;6.05;237.78;32.95;-11.67;-10.58;-237.3;-97.4;5.5;424.09;13.65;-10.6;29.58;-33.26;143.48;4.15;6.87;-327.32;-21.14;256.05;-1.7;3.68;-1.26
0;-120.91;7.93;6.68;66.41;25.66;-16.62;-5.69;-251.17;-51.05;11.24;-47.12;20.36;-12.46;50.96;33.71;70.34;2.97;10.02;-99.4;-34.15;106.65;4.44;-0.5;-0.68
0;128.16;-26.58;7.33;258.11;31.29;-14.77;-11.01;-223.42;-93.85;6.91;472.11;23.7;-10.54;23.87;-26.39;138.68;4.34;9.25;-272.68;-27.9;203.05;0.65;3.73;-1.21
0;-126.25;-0.45;7.26;69.67;31.23;-14.96;-7.19;-263.71;-79.94;9.21;-41.14;24.24;-12.77;43.98;25.8;97.6;3.62;9.71;-256.74;-36.11;131.47;6.03;-0.04;-0.72
0;127.7;-20.33;6.92;252.14;28.28;-16.09;-11.89;-227.68;-72.71;5.39;473.92;17.41;-10.95;40.43;-31.7;96.5;4.42;7.2;-186.91;-25.25;130.45;0.97;4.01;-1.36
0;-125.9;11.26;6.11;67.46;34.95;-21.28;-7.64;-244.98;-81.02;8.82;-39.46;21.14;-12.92;66.3;35.96;84.98;3.37;10.63;-146.2;-32.53;122.6;0.45;-1.78;-1.21
0;116.4;-39.58;6.95;246.52;32.82;-15.1;-10.12;-252.22;-83.28;7.08;428.42;14.39;-11.14;27.8;-40.73;137.35;4.46;7.41;-231.06;-30.41;224.51;0;4.44;-0.9
0;-121.09;10.66;6.59;72.59;29.25;-17.57;-7.56;-237.13;-34.87;10.15;-30.76;24.98;-12.15;61.43;34.67;65.44;3.31;10.99;-99.03;-32.49;116.82;2.66;-1.13;-1.18
0;128.73;-31.36;6.55;245.44;33.32;-12.84;-9.25;-236.45;-101.9;5.46;435.15;16.33;-10.48;16.52;-32.94;130.52;4.5;8.13;-216.5;-22;234.59;0.38;4.31;-0.99
0;-126.84;7.34;6.74;63.28;29.34;-18.24;-8.37;-242.55;-72.09;10.09;-53.3;19.59;-12.99;53.44;28.7;70.69;3.59;9.51;-122.76;-34.52;101.5;1.99;-1.45;-0.67
0;132.62;-27.07;6.92;256.83;28.07;-15.99;-10.32;-237.08;-75.02;5.57;476.88;15.24;-10.01;44.45;-21.82;135.71;4.45;8.09;-266.2;-24.31;197.33;2.83;4.47;-1.17
0;-129;14.77;5.92;60.61;33.59;-22.53;-7.95;-236.61;-79.8;11.18;-49.96;19.66;-13.29;64.1;23.45;76.8;3.59;10.2;-237.96;-34.23;103.62;-2.84;-1.9;-1.28
0;134.8;-31.29;8.18;264.04;30.41;-12.91;-9.79;-277.89;-87.79;13.62;482;22.81;-11.86;18.88;-35.84;131.28;5.02;8.51;-243.62;-36.74;178.39;0.6;5.59;-0.28
0;-117.07;16.22;5.64;64.5;28.93;-17.32;-12.53;-231.56;-33.35;7.18;-46.13;28.95;-11.47;65.06;35.35;67.46;3.49;11.23;-143.26;-29.26;124.11;5.66;-0.43;-1.41
0;117.06;-28.99;6.36;237.73;28.23;-17.92;-10.28;-234.44;-89.6;4.35;432.74;12.12;-10.73;29.71;-42.99;131.91;4.46;6.9;-268.79;-21.1;199.74;-0.84;3.82;-1.07
0;-127.35;13.43;6.2;69.32;35.67;-21.92;-8.14;-241.79;-58.95;11.95;-38.81;19.43;-12.93;69.84;28.8;78.92;4.28;10.71;-157.06;-31.74;117.67;1.24;-2.06;-1.35
0;146.96;-41.54;6.76;252.25;34.2;-5.89;-7.27;-224.97;-100.79;5.36;485.9;15.29;-9.54;4.03;-24.51;122.92;3.23;7.27;-249.18;-22.75;202.69;0.11;5.06;-0.23
0;-127.36;9.12;6.98;67.87;33.25;-20.52;-7.4;-271.09;-98.9;12.62;-54.46;19.3;-12.86;64.62;25.14;76.89;3.99;10.36;-235.23;-35.72;108.39;2.5;-0.95;-0.94
0;132.91;-28.94;6.66;247.78;32.78;-15.01;-9.08;-250.62;-95.6;4.14;455.57;14.3;-10.24;20.01;-25.1;129.9;3.62;7.95;-292.92;-22.97;232.04;1.44;3.77;-0.74
0;-129.3;7.37;6.09;71.51;28.53;-20.03;-10.76;-259.83;-66.27;11.87;-49.07;23.17;-13;57.21;19.36;73.9;4.48;11.02;-248.73;-32.88;85.62;0.79;-0.93;-0.86
0;128.22;-36.97;6.4;247.2;33.62;-17.22;-8.65;-252.98;-87;3.5;431.51;13.92;-10.43;25.91;-27.38;100.94;3.42;7.43;-219.24;-24.07;161.79;0.19;3.68;-0.67
0;-123.02;4.75;6.97;65.79;34.42;-19.61;-9.1;-260.34;-82.59;12.16;-43.88;22.14;-12.82;67.3;27.21;84.13;3.7;10.48;-209.93;-36.28;130.91;4.5;-1.3;-1.02
0;137.25;-23.55;7.02;260.48;34.73;-17.67;-9.23;-242.48;-100.7;6.04;484.12;18.21;-10.57;19.63;-33.61;133.67;4.14;9.03;-207.31;-24.63;254.1;0.73;4.63;-0.99
0;-127.34;3.7;6.31;62.45;33.2;-19.95;-12.35;-250.34;-86.32;11.35;-56.4;19.11;-13.22;66.01;27.91;75.92;4.41;9.84;-132.91;-36.04;110.33;0.55;-2.12;-1.03
0;127.34;-33.24;6.85;250.18;37.99;-15.94;-8.19;-228.26;-107.99;4.01;461.4;15.16;-9.86;20.54;-23.97;147.06;3.45;8.1;-299.5;-20.93;235.96;3.6;3.84;-0.97
0;-122.7;16.49;6.74;66.79;29.36;-20.42;-6.96;-254.31;-61.47;14.65;-45.83;19.59;-12.8;69.73;31.41;62.02;3.99;10.57;-207.66;-36.42;108.38;1.76;-0.73;-0.95
0;126.44;-22.98;6.03;242.07;29.78;-18.78;-10.2;-218.65;-74.39;7.51;448.11;17.4;-11.14;33.1;-40.58;125.28;4.3;8.7;-222.09;-28.4;206.65;-2.89;4.91;-1.08
0;-121.85;5.04;6.11;53.32;27.51;-18.25;-9.79;-211.27;-39.05;13.49;-57.74;22.84;-12.44;55.86;31.15;71.07;4.07;9.63;-135.97;-36.39;116.52;-0.43;-1.08;-1.01
0;117.44;-15.03;6.98;248.83;25.17;-18.33;-9.7;-276.68;-69.63;11.16;473.09;18.09;-11.94;27.31;-35;116.25;4.52;9.13;-225.08;-35.17;191.5;-3.08;4.69;-0.85
0;-119.09;4.81;5.81;56;23.83;-17.15;-10.24;-220.39;-41.05;10.41;-63.42;25.62;-11.96;48.76;29.7;64.81;3.3;10.38;-135.32;-31.5;132.89;3.26;-0.33;-1.12
0;115.35;-26.34;7.41;250.32;27.55;-17.44;-8.27;-260.03;-69.97;11.41;450.53;12.24;-10.82;33.25;-26.69;116.27;4.2;7.24;-250.36;-31.97;186.62;1.27;3.75;-0.31
0;-123.68;5.89;5.01;75.6;23.74;-19.85;-11.35;-256.21;-49.69;10.69;-37.71;25.48;-12.24;47.3;28.95;91.14;3.52;12.46;-175.91;-31.03;170.1;1;-0.75;-1.31
0;117.35;-33.19;7.93;251.49;26.09;-14.2;-7.99;-253.34;-78.98;11.32;430.23;13.92;-11.09;24.8;-26.87;95.9;4.03;5.83;-264.72;-29.61;126.13;-0.42;3.44;-0.04
0;-124.03;6.94;5.99;73.99;26.43;-21.6;-12.03;-246.7;-43.88;11.17;-44.67;30.02;-12.44;60.48;32.49;95.96;4.06;12.67;-236.55;-32.29;163.51;0.5;-0.78;-1.63
0;132.29;-35.39;6.99;241.03;28.15;-7.27;-8;-232.52;-99.2;4.47;428.26;16.6;-10.22;7.45;-25.82;110.62;3.32;6.81;-268.23;-22.43;176.72;1.87;4.2;-0.47
0;-128.86;15.96;6.13;61.43;26.37;-18.95;-8.94;-246.71;-50.66;13.04;-52.34;19.99;-12.8;62.92;25.84;75.07;4.24;10.38;-186.89;-33.12;120.49;-3.51;-1.37;-0.9
0;120.43;-19.15;7.32;258.18;24.22;-11.66;-9.63;-274.98;-72.61;8.97;475.03;13.73;-10.98;27.11;-37.97;93.07;3.82;6.44;-201.2;-30.01;161.68;0.36;4.7;-1.01
0;-116.62;12.39;6.06;61.21;32.5;-17.66;-11.65;-219.64;-51.05;9.98;-50.64;24.07;-12.22;64.77;43.78;77.25;3.85;10.61;-115.1;-31.6;144.12;1.83;-0.05;-1.26
0;107.25;-34.82;6.28;237.06;32.4;-18.62;-9.86;-221.94;-85.76;5.72;415.57;11.57;-10.62;40.54;-34.03;136.56;3.98;7.69;-333.21;-21.48;219.05;0.47;3.57;-0.72
0;-123.63;15.64;5.86;63.52;28.32;-18.27;-7.17;-242.15;-31.12;10;-57.48;18.31;-12.56;66.13;33.09;77.67;3.02;10.53;-148.57;-32.4;108;-0.02;-0.93;-1.15
0;126;-15.89;7.69;264.42;34.56;-15.28;-9.58;-258.51;-78.84;10.08;496.55;22.02;-11.21;39.84;-37.68;135.22;4.58;8.77;-246.08;-29.25;258.7;0.13;5.49;-1.09
0;-122.26;1.54;6.05;64.02;30.71;-22.2;-9.47;-233.24;-54.64;11.83;-52.83;26.66;-12.6;60.31;28.14;103.94;3.95;11.79;-199.4;-33.2;127.62;2.13;-1.52;-1.2
0;138.39;-33.84;6.17;247.72;32.88;-17.62;-8.19;-223.03;-90.92;5.75;447.12;16.91;-10.13;25.9;-19.18;134.81;4.07;8.29;-254.7;-20.67;214.61;-0.64;4.85;-0.49
0;-128.83;13.77;5.96;60;32.38;-19.38;-9.01;-238.93;-93.36;12.64;-60.09;18.85;-12.97;63.67;30.59;87.11;3.94;10.16;-179.75;-36.01;105.77;-3.03;-1.33;-1.25
0;128.22;-21.25;6.81;258.69;25.32;-14.52;-8.76;-242.8;-75.92;4.28;472.24;13.52;-10.33;16.83;-33.31;107.7;3.79;6.96;-271.79;-21.7;156.68;0.5;4.32;-1.04
0;-130.86;14.02;6.15;62.09;25.41;-21.4;-5.9;-250.79;-52.32;11.2;-73.86;17.72;-12.54;60.77;29.25;63.11;3.14;10.89;-133.06;-32.66;111.23;1.76;-0.5;-0.97
0;136.57;-30.92;7.12;252.91;38.57;-11.83;-8.91;-217.07;-106.06;5.64;463.06;20.12;-10.24;29.64;-26.17;115.97;4.32;8.19;-241.92;-23.06;232.03;0.8;5.13;-0.63
0;-131.62;13.18;6.03;60.13;29.34;-19.43;-10.63;-261.99;-96.48;13.81;-53.85;14.32;-12.85;58.75;21.82;65.6;4.27;8.96;-154.26;-36;98.99;-4.44;-2.17;-0.58
0;137.61;-1.4;7.29;257.53;42.39;-13.69;-10.96;-234.57;-105.28;5;465.48;18.81;-9.45;69.02;-0.04;157.97;4.07;9;-249.91;-23.25;311.59;3.88;4.55;-2.45
0;-128.22;19.28;6.44;56.79;22.01;-16.55;-6.92;-264.08;-50.22;13.41;-69.36;25.06;-12.65;58.78;25.33;75.57;4.07;10.41;-205.31;-36.39;98.9;0.76;0.08;-0.87
0;121.82;-22.53;8.04;258.8;33.05;-10.48;-9.49;-246.01;-106.16;5.32;476.89;15.77;-9.38;34.03;-11.14;130.7;4.12;7.51;-349.62;-22.56;196.21;4.35;3.35;-1.59
0;-124.02;19.05;6.23;59.73;27.29;-18.9;-4.02;-269.24;-66.44;11.15;-62.2;19.22;-12.88;60.69;18.25;91.34;3.1;10.14;-259.93;-35.85;100.81;-2;-0.09;-0.76
0;110.28;-21.81;6.52;233.38;26.29;-14.9;-9.8;-266.23;-63.8;9.75;420.57;12.3;-11.08;37.81;-24.85;125.06;4.15;5.7;-262.02;-31.54;169.48;-0.83;3.88;-0.75
0;-114.94;15.73;7;75.72;27.88;-16.18;-11.2;-234.03;-41.84;11.82;-31.01;28.87;-11.82;64.3;29.51;82.83;3.58;11.18;-131.49;-32.66;142.77;7.68;0.19;-1.01
0;113.83;-28.66;6.82;235.93;38.29;-16.6;-8.81;-239.73;-94.86;2.79;412.98;15.55;-9.72;40.82;-21.1;119.96;3.32;7.77;-302.66;-22.96;186.55;2.91;2.98;-1.6
0;-114.46;10.99;6.29;66.46;35.18;-18.77;-5.58;-266.27;-70.61;12.27;-41.42;24.55;-12.86;75.55;28.56;105.78;3.36;9.8;-216.45;-32.63;204.99;4.86;-0.42;-0.81
0;116.97;-18.03;7.8;247.88;35.76;-20.94;-12.75;-278.15;-75.65;10.7;463.55;21.34;-11.58;55.77;-40.89;135.33;5.09;9.14;-238.47;-34.55;228.32;0.18;4.1;-1.23
0;-115.71;7.58;6.47;67.16;28.57;-14.98;-12.55;-228.6;-50.3;10;-43.8;26.93;-11.63;53.91;33.7;65.96;3.68;10.11;-127.67;-32.14;121.09;6.67;-0.48;-1.1
0;104.4;-23.26;7.03;231.05;33.7;-13.24;-8.47;-263.54;-104.73;12;419.59;18.39;-10.78;23.84;-25.43;140.06;4.28;7.49;-287.1;-30.61;227.56;2.33;2.73;-0.35
0;-128.36;11.01;6.45;80.29;27.18;-19.54;-19.01;-244.16;-56.98;8.31;-28.57;34.73;-12.59;57.39;26.9;104.31;5.52;13.25;-256.7;-31.11;204.61;8.2;-1.05;-2.12
0;145.59;-39.11;6.14;228.81;36.16;-3.86;-6.58;-227.75;-109.33;4.14;433.94;12.43;-9.06;23.94;-22.3;115;3.11;6;-297.37;-22.2;181.3;0.58;4.53;-0.23
0;-122.74;12.23;6.95;65.68;31.1;-17.1;-7.18;-272.46;-91.71;11;-44.35;21.71;-12.92;61.48;28.95;84.71;3.96;9.83;-242.75;-36.89;123.47;1.71;-1.11;-0.92
0;119.64;-32.63;6.13;233.12;33.55;-12.91;-10.21;-236.08;-88;7.21;428.17;12.76;-10.7;19.78;-32.63;129.72;4.11;6.56;-249.9;-27.68;219.35;-0.64;4.09;-0.63
0;-117.29;21.4;5.62;69.27;25.51;-17.52;-11.07;-247.45;-22.24;10.92;-35.63;20.92;-12.06;62.04;27.78;44.23;3.33;10.06;-84.09;-33.78;86.56;2.01;-0.88;-1.29
0;116.32;-24.9;6.08;243.8;30.94;-16.54;-8.24;-228.76;-82.46;8.62;449.51;20.35;-10.75;35.23;-28.19;120.77;3.85;8;-245.67;-29.62;190.92;-1.48;4.41;-0.59
0;-118.43;16.52;4.99;63.07;24.01;-18.24;-10.28;-247.47;-22.38;8.79;-47.23;27.28;-11.94;56.21;23.86;67.93;3;10.67;-168.06;-32.07;96.98;-0.72;-0.61;-1.26
0;120.98;-22.66;6.9;250.78;26.17;-15.88;-8.86;-305.28;-67.53;9.18;451;17.47;-11.59;26.41;-34.43;119.6;4.36;7.36;-265.43;-31.66;193.94;-2.93;4.83;-0.39
0;-115.75;6.56;5.8;64.9;27.23;-20.11;-13.19;-240.75;-65.48;10.61;-47.39;32.91;-11.6;53.06;32.1;72.89;3.56;12.1;-139.21;-28.5;126.75;7.32;-0.33;-1.27
0;116.46;-32.66;6.66;221.97;31.64;-9.87;-7.62;-219.51;-85.7;4.04;353.37;14.61;-10.22;22.65;-19.13;88.38;3.12;5.55;-267.54;-24.34;166.48;1.88;3.54;-0.51
0;-117.62;10.16;6.55;50.26;26.76;-13.7;-5.82;-253.1;-72.68;11.25;-66.87;16.55;-12.52;50.88;23.07;78.87;3.41;7.35;-207.44;-35.76;134.9;0.28;0.37;-0.53
0;109.24;-22.81;7.35;223.71;25.44;-13.58;-9.42;-243.55;-75.66;11.88;421.46;10.02;-11.77;28.52;-31.62;114.55;4.98;6.21;-214.49;-34.69;187.42;-0.66;3.62;-0.76
0;-117.2;16.88;6.69;66.46;30.47;-20.25;-8.87;-245.96;-38.93;8.45;-37.28;27.04;-11.88;73.61;23.18;95.94;3.9;10.29;-255.84;-29.63;116.93;7.05;-1.23;-1.65
0;136.55;-19.31;7.28;235.98;31.83;-12.77;-11.05;-222.54;-77.29;10.03;468.56;20.61;-11.08;35.8;-34.9;129.87;4.81;8.15;-274;-30.3;200.5;-0.55;5.25;-0.77
0;-114.17;-0.42;7.16;59.92;26.89;-13.72;-11.23;-248.76;-62.7;10.11;-60.3;34.03;-11.81;49.87;33.5;93.87;3.59;11.23;-200.53;-33.7;158.1;9.41;0.62;-1.2
0;116.66;-16.86;6.14;245.93;23.46;-18.29;-9.13;-242.35;-58.63;5.66;454.31;12.38;-10.72;45.83;-23.85;98.82;4.27;7.35;-193.64;-21.84;158.71;-0.95;2.8;-1.03
0;-117.17;11.45;6.63;69.48;35.35;-17.76;-9.24;-260.49;-72.87;10.17;-41.84;28.76;-12.55;68.98;36.47;96.56;3.82;10.92;-153.51;-31.58;168.65;3.7;0.13;-0.95
0;123.05;-18.07;6.92;233.49;30.8;-18.33;-9.46;-231.88;-73.18;4.28;434.16;24.83;-9.66;42.63;-9.19;158.09;4.43;9.37;-356.71;-19.61;360.2;-0.05;2.96;-1.52
0;-117.95;13.56;5.86;64.84;35.83;-16.86;-5.28;-251.57;-60.14;8.26;-48.48;22.77;-12.77;75.02;16.24;129.66;3.28;10.02;-392.81;-33.21;159.93;-2.23;-0.18;-1.07
0;114.23;-25.93;5.55;227.71;41.61;-18.76;-9.23;-221.62;-90.9;3.63;405.26;13.11;-10.08;67.97;-31.11;121.43;3.58;7.64;-211.42;-20.58;208.97;-0.45;3.65;-1.35
0;-117.04;8.38;7.86;66.03;28.8;-18.21;-6.29;-281.07;-72.75;13.89;-54.95;28;-12.4;51.49;26.4;72.87;3.67;10.03;-141.22;-36.25;134.6;9.4;-0.01;-0.51
0;108.41;-25.56;4.68;221.84;32.91;-13.45;-9.76;-220.27;-63.59;5.4;412.18;12.9;-10.54;47.23;-22.69;136.1;3.91;7.12;-260.92;-22.21;260.7;-3.18;3.12;-1.16
0;-119.5;10.48;6.75;78.48;25.35;-17.28;-9.11;-255.72;-32.9;12.91;-34.49;25.52;-12.51;52.75;26.48;83;3.64;10.96;-146.74;-32.62;140.45;4.7;0.27;-0.91
0;120.18;-27.43;7.05;239.35;36.68;-15.9;-9.3;-257.92;-94.46;3.76;416.35;14.68;-10.05;35.97;-16.77;99.36;3.28;6.22;-248.62;-23.34;139.63;1.16;3.59;-0.88
0;-115.29;7.49;6.98;63.01;31.37;-16.63;-6.62;-274.07;-57.41;8.98;-46.39;23.53;-12.73;65.94;25.96;88.07;2.77;10.36;-204.21;-35.41;172.94;6.03;-0.42;-0.59
0;115.42;-14.53;6.84;241.18;40.01;-17.91;-9.25;-232.8;-84.87;3.73;480.48;14.65;-10.22;57.45;-29.14;142.2;3.61;8.38;-248.01;-22.4;254.93;2.37;3.56;-1.55
0;-117.5;11.65;6.94;67.75;29.01;-18.81;-8.19;-253.02;-46.56;10.45;-53.24;28.41;-12.47;62.01;34.94;78.63;3.47;10.45;-117.08;-33.03;171.4;3.74;0.17;-1.04
0;115.43;-22.19;6.77;240.12;38.46;-19.61;-8.98;-236.13;-91.82;3.59;427.24;13.76;-10.3;51.44;-34.58;100.29;3.48;7.63;-211.3;-22.95;160.96;1.24;3.67;-1.1
0;-120.18;14.1;7.35;50.18;30.92;-16.38;-7.52;-268.66;-68.74;8.48;-59.84;22.98;-12.8;61.45;36.06;82.51;2.83;9.64;-157.59;-35.4;165.37;7.09;-0.18;-0.7
0;111.28;-14.94;7.19;252.26;28.94;-14.25;-11.6;-274.56;-69.62;7.99;476.36;11.56;-10.99;47.59;-30.44;131.11;4.71;6.4;-257.74;-26.18;168.58;2.35;3.56;-1.36
0;-124.28;15.25;6.35;69.33;27.88;-20.69;-8.88;-224.57;-36.27;12.63;-49.5;24.69;-13.15;66.98;17.63;91.66;4.24;10.95;-175.47;-30.96;131.44;0.71;-0.78;-1.67
0;159.16;-28.69;6.82;244.67;41.33;-4.53;-8.41;-226.92;-106.97;4.7;493.25;13.93;-8.93;28.94;-18.95;113.66;3.65;6.22;-223.28;-21.95;202.53;2;5.06;-0.36
0;-111.84;5.97;7.91;71.97;28.78;-17;-7.11;-296.81;-94.43;9.27;-36.48;32.51;-12.32;57.79;24;82.91;3.47;10.28;-191.9;-35.16;139.91;8.86;0.42;-0.88
0;109.86;-23.99;6.44;238.73;25.49;-21.4;-7.72;-242.04;-63.85;4.59;419.47;17.84;-10.08;51.14;-13.47;111.72;3.42;7.58;-343.59;-18.42;192.32;-0.82;2.13;-0.9
0;-128.73;-0.52;6.47;70.16;20.79;-15.33;-8.45;-273.77;-67.51;13.81;-52.58;22.31;-12.66;29.75;13.12;111.25;3.93;10.12;-267.74;-34.76;191.28;3.37;0.18;-0.74
0;125.68;-21.1;6.15;228.35;26.9;-10.18;-8.24;-230.79;-76.29;5.56;399.05;19.76;-9.77;32.08;-13.78;109.6;3.01;6.48;-298.07;-25.59;192.36;0.27;3.6;-0.82
0;-120.89;7.53;8.82;70.81;29.74;-14.96;-8.88;-291.18;-75;9.51;-53.89;27.62;-12.5;54.85;20.85;98.85;3.75;9.61;-242.49;-37;133.29;13.09;-0.03;-0.81
0;117.82;-19.13;8.38;242.34;40.77;-13.09;-10.64;-261.79;-97.8;8.89;444.86;17.78;-10.44;57.14;-25.12;111.49;4.38;7.75;-232.71;-29.45;197.9;4.14;4;-0.95
0;-114.23;11.61;6.55;71.56;27.96;-18.3;-13.13;-238.71;-50.82;11.7;-39.79;33.37;-12.13;56.62;29.52;85.1;3.82;12.44;-180.18;-33.57;165.19;7.67;-0.22;-1.28
0;123.3;-22.42;6.88;248.11;38.65;-15.84;-10.02;-251.21;-94.35;3.06;461.6;16.32;-9.6;34.24;-28.64;129.65;3.33;7.26;-291.51;-22.32;205.67;2.49;3.39;-1.24
0;-112.47;5.47;9.05;72.37;30.92;-17.26;-6.1;-295.11;-93.45;5.77;-42.82;33.27;-12.58;67.26;29.92;88.54;3.38;10.29;-204.96;-36.53;114.92;12.12;0.89;-0.83
0;108.85;-18.62;6.34;236.53;35.93;-22.56;-8.9;-228.4;-79.23;3.49;430.05;11.91;-10.28;65.25;-24.25;112.61;3.51;8.22;-212.21;-20.1;156.79;0.01;3.31;-0.95
0;-122.41;13.21;7.77;70.39;29.83;-23.4;-7.12;-250.04;-46.46;10.12;-51.94;29.39;-12.94;62.55;36.26;93.32;3.47;12.05;-170.45;-33.83;169.82;9.73;-1.07;-1.23
0;121.23;-28.62;6.33;233.63;29.57;-5.17;-8.42;-230.47;-80.03;8.62;426.62;14.13;-10.39;27.29;-33.24;124.52;3.62;6.17;-273.68;-29.47;171.77;-0.39;3.63;-0.9
0;-121.41;19.32;7.54;76;32.12;-17.62;-7.4;-283.83;-44.09;13.59;-38.06;31.82;-11.9;69.51;32.08;91.62;3.81;11.92;-166.23;-34.88;170.6;12.02;-0.37;-1.24
0;124.48;-16.53;7.52;244.6;40.25;-14.98;-10.2;-230.14;-108.41;5.31;456.12;15.41;-9.98;35.68;-24.02;130.7;4.34;7.03;-243.8;-24.37;206.21;3.65;4.58;-1.09
0;-114.58;9.71;6.57;67.56;28.36;-17.8;-9.31;-264.55;-53.54;9.87;-44.95;22.84;-12.59;61.79;29.03;89.83;3.72;10.3;-156.94;-34.56;115.13;4.09;0.13;-0.88
0;110.19;-22.45;6.87;238.71;38.42;-17.2;-8.7;-231.57;-88.31;3.56;459.36;13.46;-9.6;41.38;-24.46;120.18;3.37;7.43;-291.87;-22.19;166.89;0.61;3.04;-1.18
0;-117.53;17.11;6.51;64.18;27.26;-18.4;-4.9;-285.06;-65.23;9.91;-56.88;22.27;-12.44;57.77;23.18;68.44;2.64;9.81;-146.1;-35.83;97.67;2.73;-0.03;-0.8
0;113.43;-13;7.39;248.48;32.02;-13.06;-10.1;-266.49;-68.09;6.27;460.99;15.19;-10.49;50.64;-25.39;119.58;4.44;7.01;-220.26;-22.45;162.83;3.17;4.19;-1.02
0;-117.98;16;4.36;61.5;23.56;-18.11;-8.09;-235.26;-36.8;10.11;-59.01;24.38;-12.18;57.15;29.24;66.52;2.85;10.63;-114.74;-27.68;146.17;0.15;-0.13;-1.3
0;118.93;-25.37;5.81;226.1;34.73;-10.7;-11.03;-219.75;-79.89;3.65;422.26;14.01;-10.43;19.18;-39.38;88.13;3.73;6.04;-186.04;-20.89;141.22;-1.17;5.5;-0.71
0;-115.33;7.14;7.72;63.95;36.16;-22.04;-8.54;-215.61;-64.93;9.01;-40.97;33.92;-12.88;74.34;19.75;125.86;3.6;12.08;-281.37;-33.16;189.48;9.75;-1.45;-1.26
0;137.01;-29.75;5.98;230.72;32.07;-4.56;-9.32;-217.93;-81.81;3.94;454.2;16.06;-10.22;8.04;-17.03;87.83;3.38;5.41;-243.99;-26.52;124.44;-1.19;5.48;-0.48
0;-117.82;18.87;7.67;62.51;27.92;-19.56;-5.96;-272.7;-31.52;9.04;-61.36;30.73;-12.13;70.56;36.42;77.06;2.67;11.35;-149.66;-36.48;114.58;9.02;-0.09;-1.02
0;114;-15.74;7.94;240.07;32.83;-12.94;-10.47;-250.25;-79.6;5.24;454.83;18.94;-10.59;49.4;-30.8;116.41;4.38;8.54;-197.71;-21.97;205.46;4.04;4.83;-1.35
0;-120.29;9.21;5.31;54.56;25.51;-14.92;-6.34;-223.7;-39.28;12.41;-63.08;27.16;-12.34;48.92;28.7;88.59;3.64;10.46;-194.55;-27.42;157.81;0.92;-0.64;-0.9
0;122.92;-23.38;7.2;245.83;39.61;-13.28;-9.02;-239.2;-99.71;4.74;490.33;25.37;-10.88;27.5;-27.27;95.25;4.24;8.9;-184.7;-23.3;169.4;0.01;4.08;-1.07
0;-120.59;10.16;7.64;64.16;28.83;-15.57;-7.33;-281.05;-50.47;9.87;-55.73;33.99;-12.12;54.09;24.13;93.36;3.46;12.34;-233.59;-31.96;156.98;11.57;0.03;-0.75
0;118.52;-11.95;7.9;238.87;35.29;-14.93;-10.4;-272.55;-71.89;7.2;452.73;14.25;-11.12;44.5;-27.59;93.76;4.75;7.79;-197.07;-31.8;159.08;1.28;4.69;-1.13
0;-114.34;6.88;7.99;63.52;31.22;-14.41;-10.99;-228.49;-67.63;11.51;-46.26;35.98;-11.7;53.79;32.29;87.52;3.78;12.07;-216.44;-33.6;151.13;13.86;0.03;-0.98
0;117.93;-12.52;7.39;241.65;35.2;-17.77;-9.58;-208.12;-81.08;5.72;468.05;19.29;-10.18;49.02;-12.91;119.81;4.32;9.18;-237.09;-21.97;196.19;3.21;3.97;-1.37
0;-133.53;0.8;6.46;72.34;21.38;-20.49;-13.06;-270.93;-58.91;11.72;-51.28;35.23;-13.04;35.05;23.37;120.11;4.49;13.08;-280.26;-34.66;206.79;2.81;-0.51;-1.35
0;127.01;-13.87;8.44;243.61;36.09;-10.35;-10.53;-234.04;-87.04;10.72;457.1;17.01;-10.32;47.95;-26.56;95.02;4.59;7.77;-237.19;-28.32;146.64;3.34;4.59;-0.8
0;-129.76;9.76;5.75;64.57;21.29;-18.17;-10.82;-251.65;-31.94;11.39;-58.78;32;-12.14;44.87;32.6;79.96;3.26;11.84;-154.32;-33.49;148.31;2.79;-0.16;-1.38
0;114.5;-5.01;9.55;260.29;35.74;-12.12;-9.9;-265.42;-75.59;13.53;483.2;17.2;-11.39;49.56;-22.56;91;5.18;7.76;-214.42;-37.23;163.25;3.26;4.8;-0.82
0;-125.62;11.59;8.13;64.78;28.81;-21.07;-11.02;-245.46;-48.24;7.39;-62.57;36.8;-11.66;55.55;29.06;97.06;3.55;12.93;-208.99;-28.58;156.68;10.72;-0.68;-1.76
0;121.35;-16.6;7.97;248.01;24.07;-10.96;-8.32;-237.1;-49.07;10.43;472.92;13.49;-10.12;33.81;-13.6;103.51;4.56;5.64;-204.1;-27.51;180.31;-0.91;5.1;-0.46
0;-139.4;5.41;7.96;75.31;19.55;-25.11;-9.77;-272.71;-31.58;11.41;-53.04;30.07;-12.64;38.85;23;99.31;4.09;12.9;-195.76;-34.06;143.93;10.35;0.53;-1.74
0;154.93;-10.14;6.56;229.93;35.55;-10.19;-8.62;-206.91;-73.37;6.4;425.12;20.2;-9.89;50.53;-24.75;98.03;3.96;6.69;-218.74;-28.15;162.44;0.54;4.59;-0.48
0;-114.57;9.47;6.05;57.41;23.19;-15.51;-4.89;-232.16;-36.61;9.09;-49.09;30.17;-12.08;52.32;21.75;78.46;2.96;9.81;-183.98;-32.67;153.45;2.24;-0.18;-0.57
0;112.67;-17.71;5.83;225.93;29.84;-16.18;-7.43;-216.63;-68.9;3.37;424.54;13.87;-9.74;33.09;-19.67;107.7;3.16;6.24;-253.31;-19.78;139.29;-0.65;3.67;-1.34
0;-127.42;3.48;6.31;64.76;27.14;-20.25;-7.26;-260.36;-89.85;10.99;-53.36;24.26;-12.84;47.76;22.78;80.81;3.09;9.84;-197.09;-34.94;141.45;1.89;-0.92;-0.78
0;139.33;-17.31;7.35;236.41;27.86;-8.87;-8.93;-219.56;-67.62;3.65;449.78;13.57;-9.38;30.93;-3.4;110.7;3.53;6.68;-207.2;-27.58;172.52;2.6;4.26;-0.99
0;-120.47;11.58;6.84;76.17;21.22;-15.71;-9.9;-280.51;-53.81;11.66;-43.9;33.34;-12.35;54.59;14.95;77.62;3.82;11.63;-180.25;-34.54;112.43;5.2;0.42;-0.61
0;116.13;-19.71;6.67;237.84;33.32;-17.8;-9.44;-228.36;-83.09;3.35;438.16;15;-10.2;47.16;-15.81;86.83;3.43;7.02;-184.93;-21.19;147.91;-0.06;3.27;-0.79
0;-121.99;1.44;7.6;74.92;27.56;-16.88;-11.8;-284.77;-65.39;12.22;-44.92;33.43;-12.73;46.98;16.7;113.13;4.41;12.56;-245.37;-34.38;184.61;7.2;0.02;-0.6
0;116.63;-26.81;7.01;243.63;29.1;-15.52;-7.2;-248.45;-78.17;3.66;445.13;14.87;-9.97;25.42;-10.09;81.07;2.77;6.53;-261.67;-22.6;118.66;-0.04;2.94;-0.71
0;-129.29;9.47;6.84;72.85;28.95;-16.24;-9.6;-276.09;-61;12.58;-46.14;35.78;-12.76;58.17;14.72;127.94;4.15;13.4;-270.88;-34.7;243.86;6.3;-0.51;-0.77
0;137.51;-21.7;9.51;262.09;47.74;-9.5;-9.78;-238.48;-114.41;4.83;502.65;17.55;-9.3;51.98;-3.88;132.02;4.44;8.18;-259.82;-26.77;221.52;5.35;4.02;-1.21
0;-124.65;19.59;6.56;68.54;35.11;-21.28;-9.44;-286.51;-88.78;8.48;-43.7;26.29;-13.19;74.04;8.78;90.76;2.95;10.32;-225.32;-37.12;114.39;1.05;-1.51;-1.25
0;149.73;-18.48;6.02;229.79;33.78;-3.21;-10.35;-219.83;-66.68;3.59;452.74;13.15;-9.54;65.44;-19.13;110.28;3.62;5.93;-234.4;-22.11;183.83;0.62;5.94;-1.06
0;-128.94;13;5.85;63.13;27.4;-17.81;-8;-249.42;-73.34;11.04;-46.95;22.03;-13.08;53.6;21.96;63.07;3.4;9.85;-113.64;-34.9;110.75;-3.56;-1.74;-0.84
0;120;-19.07;8.51;254.11;28.49;-13.26;-9.95;-285.18;-57.53;12;461.52;11.4;-11.05;43.47;-19.92;88.26;4.22;5.89;-177.76;-34.47;117.31;1.15;4.26;-0.3
0;-123.34;17.2;6.61;72.16;24.66;-20.66;-14.07;-253.88;-29.49;7.64;-48.99;33.97;-11.69;64.51;31.89;73.52;4.2;12.69;-117.98;-30.28;132.1;5.67;-0.59;-1.57
0;126.77;-15.64;8.75;248.51;41.81;-14.29;-9.53;-237.92;-100.94;5.87;475.91;15.95;-9.62;41.8;-11.48;112.44;4.14;7.37;-216.3;-26.26;193.88;3.88;4.79;-0.92
0;-124.48;17.45;6.1;71.89;30.21;-21.69;-10.03;-276.74;-78.23;7.31;-41.09;25.29;-13.27;68.6;4.68;100.88;3.22;10.62;-248.71;-34.67;94.3;-0.99;-1.66;-1.58
0;157.28;-13.46;7.84;242.02;39.21;-2.22;-9.4;-231.57;-66.95;5.05;492.97;14.85;-9.22;80.8;-6.15;123.13;3.71;5.08;-229.18;-24.12;140;4.13;5.89;-0.82
0;-122.89;17.86;5.62;63.59;28.7;-15.91;-9.08;-254.09;-68.18;11.57;-45.37;26.15;-12.75;62;29.23;79.26;3.72;10.9;-131.9;-32.96;150.02;-1.79;-0.99;-1.02
0;114.55;-24;7.42;241.26;36.98;-13.19;-9.47;-221.76;-84.83;8.8;459.91;13.05;-10.08;33.55;-22.79;122.08;3.95;6.85;-267.26;-27.32;149.99;1.86;4.27;-0.85
0;-125.23;24.34;6.76;71.85;26.31;-17.19;-8.29;-268.12;-14.95;14.33;-47.12;28.6;-12.59;67.63;22.54;67.43;3.83;11.16;-111.12;-35.95;111.93;0.67;-1.21;-1.12
0;128.17;-26.32;8.65;238.01;42.47;-9.72;-8.96;-235.3;-109.57;8.59;449.71;13.98;-10.19;34.88;-18.65;125.81;3.96;6.42;-199.69;-31.56;194.67;2.63;5.36;-0.56
0;-128.01;16.86;6.29;69.73;21.12;-20.67;-9.18;-270.92;-22.87;12.27;-52.23;30.39;-12.93;57.23;9.71;86.2;3.65;11;-233.5;-34.58;109.74;2.44;-1.32;-1.54
0;158.98;-28.35;6.22;228.62;33.41;-12.42;-8.56;-207.96;-75.21;4.19;449.57;20.47;-8.55;31.41;0.45;128.56;2.94;7.67;-334.17;-19.9;258.46;1.62;4.65;-0.88
0;-132.37;19.69;6.58;70.65;28.77;-17.23;-8.74;-291.33;-78.41;12.73;-46.37;31.55;-13.17;65.45;17.86;112.69;3.99;12.5;-320.33;-34.47;186.05;1.47;-0.9;-1.08
0;131.25;-24.02;7.3;235.42;36.22;-11.8;-10.13;-227.99;-87.78;5.56;425.95;14.45;-9.81;34;-13.23;136.53;3.71;7.92;-276.8;-25;215.98;2.06;4.31;-1.26
0;-126.43;16.13;5.72;69.16;24.03;-18.4;-9.26;-281.04;-41.08;12.95;-59.06;31.67;-12.31;62.2;16.85;85.12;3.86;12.2;-235.09;-32.1;142.08;0.09;0.07;-1.01
0;123.63;2.32;7.79;244.83;27.31;-10.44;-9.65;-226.96;-55.1;5.79;474.52;16.5;-10.59;51.4;-15.25;104.01;3.67;7.53;-200.55;-25.76;145.77;1.82;5.11;-0.73
0;-120.83;15.76;6.81;59.58;25.63;-16.66;-7.27;-241.48;-30.86;10.58;-49.31;31.79;-12.47;55.98;26.31;75.22;3.31;11.48;-164.23;-34.7;142.13;3.84;-0.63;-0.92
0;120.15;-10.53;7.58;239.95;32.85;-14.65;-10.49;-227.82;-73.42;5.65;459.27;16.06;-10.17;47.14;-19.65;113.04;4.06;7.13;-206.88;-26.6;155.3;1.13;4.6;-1.4
0;-122.7;20.04;6.65;67.43;22.86;-19.89;-8.26;-275.78;-28.47;14.19;-54.1;30.65;-12.35;64.36;27.63;69.3;3.72;11.56;-128.79;-34.71;114.44;3.92;-1.06;-1.21
0;124.24;-21.45;7.54;247.03;38.63;-10.65;-8.91;-223.93;-79.48;4.12;474.44;13.65;-10.02;42.84;-23.03;118.86;3.57;6.37;-293.71;-25.75;157.41;0.24;5.13;-0.57
0;-127.29;18.33;6.67;71.42;28.78;-20.4;-7.81;-262.1;-37.71;12.96;-47.23;29.07;-12.62;63.23;30.98;73.32;3.61;11.49;-118.92;-36.19;123.73;0.12;-1.48;-1.05
0;138.15;-13.34;9.69;274.82;40.23;-12.11;-10.2;-250.54;-91.83;4.16;502.41;16.36;-9.81;45.97;-15.05;93.15;4.04;7.17;-180.43;-27;127.07;5.31;5.8;-1.1
0;-131.21;19.22;5.8;68.57;31.12;-22.1;-6.46;-272.34;-68;8.29;-48.47;15.46;-13.3;70.11;16.45;80.45;2.87;10.05;-139.69;-34.77;102.43;-7.18;-2.93;-1.01
0;130.3;2.86;9.68;253.03;45.71;-7.68;-10.84;-262.1;-85.22;9.64;467.87;16.06;-10.4;90.2;-24.19;111.53;4.9;7.91;-239.54;-37.16;121.3;3.99;6.85;-2.01
0;-115.23;12.06;7.44;76.3;33.8;-21.25;-6.41;-241.75;-48.52;10.24;-33.09;33.13;-11.84;73.37;39.45;97.16;3.06;12.58;-242.24;-32.46;161.19;8.77;-1.7;-1.09
0;130.49;-17.09;8.4;256.32;39.08;-18.08;-10.38;-237.16;-96.36;6.41;473.79;17.58;-10.07;43.64;-18.13;123.74;4.56;8.99;-207.86;-27.36;206.51;3.05;4.54;-1.06
0;-134.55;14.6;5.78;73.24;26.14;-21.96;-10.75;-262.76;-53.31;13.43;-55.25;26.73;-13.36;67.22;13.74;98.23;4.72;11.8;-169.99;-31.48;179.33;-1.45;-2.04;-1.42
0;151.72;-26.96;7.06;239.09;43.81;-3.9;-8.73;-239.25;-109.82;4.86;464.23;17.05;-9.1;38.05;-8.13;129.68;3.62;7.13;-206.01;-23.62;176.59;1.9;5.68;-0.41
0;-122.64;20.05;6.03;77.23;24.85;-16.41;-8.18;-285.6;-41.92;10.19;-42.04;34.4;-12.26;63.39;22.56;69.48;3.29;11.95;-170.55;-31.33;127.11;0.13;-0.84;-0.84
0;115.69;-16.71;8.13;238.52;39.83;-13.4;-9.18;-243.7;-98.72;10.35;433.1;15.03;-10.55;39.21;-21.67;123.75;4.11;7.88;-228.59;-30.35;186.38;2.03;4.47;-0.88
0;-115.75;22.16;6.91;75.91;37.49;-20.94;-9.43;-261.98;-35.87;9.16;-19.65;33.24;-11.69;89.09;37.67;103.95;3.89;13.01;-185.24;-30.29;203.19;5.15;-0.95;-1.66
0;118.67;-15.25;9.54;253.07;42.53;-13.58;-11.05;-251.23;-100.71;10.57;488.52;20.84;-11.36;66.51;-28.51;161.96;5.31;9.35;-328.68;-36.63;243.78;3.62;4.72;-0.99
0;-118.42;21.88;7.45;66.09;28.92;-19.67;-8.58;-267.76;-23.32;6.13;-57.66;33.52;-11.48;74.34;32.37;66.86;3.25;11.52;-124.1;-30.81;138.11;9.56;-0.38;-1.51
0;121.33;-14.29;7.96;241.12;32.29;-17.18;-9.34;-221.94;-72.34;3.83;461.76;15.32;-9.98;42.74;-22.82;136.4;3.88;9.3;-231.63;-22.71;181.24;3.22;4.3;-1.59
0;-125.58;17.52;6.5;77.46;30.73;-17.14;-7.8;-291.32;-47.83;10.25;-31.04;31.47;-12.48;65.68;19.68;84.99;3.07;11.7;-206.75;-32.55;106.66;1.78;-1.13;-0.78
0;131.47;-7.69;8.76;261.09;38.88;-16.55;-9.64;-244.7;-101.31;4.44;496.47;21.94;-9.58;40.69;-15.43;135.05;4.34;9.54;-260.75;-25.96;233.5;7.18;5.19;-1.59
0;-121.09;0.86;7.45;76.72;29.8;-22.17;-13.18;-279.97;-77.98;10.58;-34.11;30.77;-12.94;57.79;16.64;110.71;4.73;12.14;-288.25;-37.19;166.9;4.62;-1.2;-0.78
0;125.6;-18.02;7.91;244.46;41.15;-20.44;-9.33;-242.39;-99.83;4;448.44;15.44;-9.54;39.11;0.81;122.45;3.62;8.91;-235.04;-24.12;196.8;4.02;3.96;-0.78
0;-125.71;11.38;5.88;77.22;26.9;-22.3;-11.64;-304.46;-64.61;8.27;-48.78;35.28;-12.81;62.15;8.27;124.19;3.92;13.61;-326.78;-32.98;248.13;-1.08;-1.35;-1.08
0;120.93;-14.37;8.7;247.62;46.15;-11.68;-10.51;-247.22;-98;13.03;463.51;19.83;-10.26;55.87;-9.04;143.3;4.4;9.01;-253.21;-32.85;226.25;3.56;4.72;-1.01
0;-118.55;15.03;5.79;76.03;23.4;-19.36;-7.53;-268.44;-18.72;11.54;-39.75;37.54;-11.88;56.88;29.49;66;2.91;12.31;-165.45;-32.1;111.77;2.42;-0.55;-1.04
0;117.99;-1.8;8.05;238.65;40.28;-13.02;-10.94;-226.75;-67.06;9.15;447.88;16.39;-10.38;73.75;-23.75;144.44;4.11;8.71;-256.83;-29.92;190.4;2.75;4.17;-2.14
0;-124.48;11.47;7.38;82.28;27.7;-19.64;-8.1;-274.32;-46.24;12.09;-26.87;34.63;-12.68;57.89;38.35;82.18;3.72;13.36;-158.34;-33.37;167.58;6.55;-1.05;-1.45
0;146.86;-14.58;7.69;242.68;27.25;-8.57;-9.19;-245.94;-68.48;2.79;460.08;13.8;-9.5;26.46;-19.97;88.12;3.17;6.43;-182.12;-25.25;131.96;2.95;5.64;-1.1
0;-126.64;11.96;7.66;77;32.96;-19.42;-6.39;-316.86;-70.31;8.81;-55.5;26.46;-12.75;72.66;21.03;77.82;3.3;11.13;-206.86;-36.44;94.79;8.94;-1.56;-0.79
0;130.14;-11.94;9.11;247.87;45.78;-14.15;-9.92;-242.77;-103.85;5.17;468.61;16.99;-9.87;46.3;-17.13;131.28;4.24;8.63;-276.23;-26.47;208.59;6.41;5;-1.18
0;-122.72;8.15;6.77;74.46;26.77;-18;-10.95;-297.15;-60.83;10.42;-33.16;32.19;-12.57;53.41;24.83;78.86;3.51;11.52;-223.04;-33.28;107.61;4.99;-1.28;-1.03
0;125.45;-14.39;7.52;252.21;33.15;-17.31;-9.38;-239.09;-76.06;3.89;483.43;15.07;-10.07;39.42;-8.75;123.55;3.63;8.23;-191.98;-24.58;189.47;4.11;3.9;-1.13
0;-136.74;12.07;7.57;83.17;23.73;-19.06;-9.34;-305.65;-66.69;12.65;-43.05;28.27;-13.79;56.97;10.74;86.88;4.16;11.1;-202.63;-36.13;123.97;6.08;-1.85;-1.17
0;-109.33;1.69;4.01;47.24;26.83;-10.96;-12.74;-182.86;-47.5;9.5;-45.31;15.26;-12.4;55.31;13.28;83.07;3.6;5.98;-239.29;-29.15;77.77;-5.4;-0.31;-1.24
0;125.3;-23.51;4.6;194.83;33.39;-4.24;-8.05;-181.51;-68.84;4.45;358.87;11.18;-9.49;38.57;-5.42;90.02;3.03;3.88;-240.56;-19.32;137.97;-2.04;4.47;-0.1
0;-106.88;10.39;3.37;41.03;28.9;-12.02;-9.17;-177.43;-60.44;9.08;-55.81;13.02;-12.34;72.32;19.15;68.58;3.35;5.97;-243.06;-25.86;83.75;-8.75;-0.49;-1.11
0;123.68;-10.57;4.85;201.88;39.67;-9.14;-14.71;-185.71;-93.7;5.96;378.92;17.84;-9.29;68.85;-10.18;134.93;4.31;6.06;-254.33;-18.4;239.93;-1.69;4.74;-1.35
0;-106.99;9.24;4.28;46.08;23.76;-9.55;-8.27;-188.36;-47.75;9.25;-46.03;18.14;-12.21;59.7;19.89;68.11;3.51;6.02;-209.92;-28.94;88.55;-3.21;0.09;-1.12
0;113.98;-16.37;5.5;211.02;41.27;-10.04;-12.18;-209.17;-96.88;5.89;390.8;15.74;-9.76;55.89;-10.84;120.66;3.86;6.57;-286.19;-20.74;168.26;-0.92;3.82;-0.82
0;-115.65;9.79;4.1;50.52;26.19;-11.39;-7.88;-203.16;-57.81;12.17;-50.39;15.57;-12.57;63.24;15.83;66.75;3.71;6.54;-262.82;-28.94;83.82;-6.84;-0.35;-1.15
0;121.77;-24.67;5.51;215.6;40.84;-8.99;-11.48;-210.68;-87.08;6.37;380.3;14.52;-9.98;47.34;-15.87;120.45;3.96;6.17;-300;-19.87;167.4;-1.52;4.29;-0.84
0;-119.71;10.59;4.99;55.83;26.26;-10.17;-6.81;-224.58;-33.51;13.11;-42.72;19.8;-12.48;65.87;28.08;91.59;3.51;8.47;-176.51;-30.01;170.56;-1.45;0.82;-0.84
0;119.88;-10.43;5.85;219.89;41.9;-12.8;-13.78;-211.43;-93.5;7.31;411.11;13.85;-10.14;65.48;-15.95;131.59;4.49;6.6;-314.73;-20.8;195.65;-1.1;3.53;-0.78
0;-120.9;10.91;5.76;61.22;27.28;-12.99;-11.01;-246.32;-45.08;9.26;-48.84;16.04;-12.96;69.02;27.42;85.35;3.32;7.49;-262.26;-32.62;107.51;1.74;0.62;-1.1
0;121.13;-14.87;6.62;236.33;39.88;-12.75;-13.67;-222.44;-76.58;7.2;422.73;15.04;-10.53;59.35;-33.84;125.75;5.12;6.8;-228.56;-22.17;173.78;-1.53;4.21;-1.01
0;-125.62;4.95;5.48;53.62;29.78;-13.64;-7.51;-224.71;-50.06;12.49;-52.56;20.88;-12.84;67.48;34.03;76.57;3.34;8.56;-141.82;-31.57;110.47;-0.43;-0.41;-0.65
0;127.03;-20.06;7.39;242.06;34.65;-13.93;-16.46;-219.22;-78.13;7.49;458.61;14.28;-10.42;44.93;-22.28;124.93;5.35;7.49;-221.87;-27.17;211.34;1.64;4.49;-0.82
0;-125.7;13.28;5.42;52.96;30.39;-15.66;-9.39;-215.96;-41.36;11.99;-46.1;17.86;-13.09;73.6;23.69;88.35;4.1;8.72;-186.18;-31.79;101.86;-1.34;-0.78;-1.01
0;132.68;-27.52;5.77;224.05;47.44;-14.9;-12.29;-192.45;-87.31;6.35;411.28;13.09;-10.47;47.14;-34.77;150.01;4.96;7.02;-291.82;-20.86;192.47;0.44;4.6;-0.61
0;-129.42;10.22;6.27;60.07;32.49;-15.81;-9.78;-238.55;-69.74;11.56;-41.56;17.38;-13.09;72.94;33.35;63.88;3.92;8.65;-177.19;-34.15;102.22;1.4;-0.67;-0.8
0;129.45;-25.25;7.16;237.53;49.76;-13.32;-16.06;-218.66;-104.81;7.96;424.73;18.09;-10.28;57.78;-20.64;154.9;5.02;8.37;-305.33;-24.94;236.18;1.66;4.98;-0.65
0;-126.01;8.83;5.66;54.96;28.23;-16.63;-9.5;-232.51;-45.48;11.64;-61.79;19.4;-13.35;71.12;23.01;88.77;4.28;8.46;-168.25;-32.61;118.02;-0.76;-0.79;-1.02
0;131.32;-25.19;6.81;236.27;44.83;-10.93;-11.47;-220.61;-91.4;7.66;428.19;17.05;-9.9;47.76;-23.55;141.06;4.54;7.27;-310.9;-21.63;186.85;0.92;5.22;-0.92
0;-119.78;19.27;4.97;51.05;29.34;-17.87;-9.8;-221.43;-48.77;13.57;-45.69;16.56;-13.06;78.61;34.63;78.22;4.67;7.83;-176.64;-32.13;111.37;-2.96;-0.57;-0.85
0;132.19;-14.14;5.74;231.33;39.76;-17.46;-12.82;-183.05;-95.45;5.59;425.39;14.37;-10.69;55.15;-33.38;130.02;4.57;7.62;-296.69;-22.18;145;-1.07;4.96;-1.38
0;-125.81;14;5.53;51.94;30.41;-18.12;-9.37;-228.22;-56.71;12.37;-49.89;16.15;-13.41;77.63;39.29;75.34;4.38;8.17;-141.78;-33.48;121.05;-2.82;-1.55;-1.24
0;135.64;-11.45;7.29;242.65;34.07;-16.09;-13.56;-202.1;-63.65;5.83;427.23;21.07;-10.8;54.45;-37.4;122.92;4.71;8.48;-262.21;-22.9;173.85;1.03;5.3;-1.1
0;-127.16;4.05;6;65.03;31.36;-16.32;-9.83;-227.73;-45.92;10.45;-38.92;21;-12.97;70.93;31.57;80.45;4;9.84;-160.53;-31.71;139.9;1.39;-0.69;-1.11
0;136;-23.6;6.59;230.1;37.6;-13.76;-8.44;-217.5;-88.79;5.27;405;15.19;-10.33;33.94;-17.46;110.27;3.75;7.29;-283.56;-22.41;173.71;1.57;4.54;-0.26
0;-124.8;12.88;5.26;51.94;32.93;-15.83;-11.92;-219.98;-62.08;11.86;-42.24;21.93;-13.09;77.45;24.65;80.53;4.42;8.19;-275.11;-32.66;128.08;-1.33;-1.14;-1.39
0;132.83;-12.08;6.47;235.51;36.1;-14.79;-12.63;-203.62;-74.94;5.33;410.51;18.61;-10.15;48.29;-29.8;128.27;4.37;8.03;-243.43;-22.03;197.02;-0.09;5.68;-1.27
0;-122.5;12.91;5.6;59.86;32.73;-14.62;-11.37;-225.72;-53.89;10.17;-30.46;17.67;-13.06;76.85;34.27;67.66;4.19;8.34;-156.23;-32.32;108.7;0.56;-1.13;-1.27
0;125.73;-14.26;6.89;232.15;40.95;-13.69;-12.24;-197.69;-76.14;4.82;403.44;19.19;-10.55;56.71;-33.52;126.64;4.14;7.91;-269.91;-23.68;226.07;1.15;5.4;-1.12
0;-123.95;5.02;5.24;60.52;32.21;-14.62;-11.51;-223.17;-49.08;8.97;-37.24;21.84;-12.94;65.66;35.55;82.44;3.94;9.64;-165.17;-31.58;151.11;-1.61;-0.85;-1.47
0;142.07;-30.76;7.05;241.64;45.68;-12.3;-8.3;-209.24;-103.62;5.11;454.33;13.47;-9.9;34.37;-22.83;116.46;3.65;7.07;-281.01;-24.5;185.62;0.04;4.91;-0.09
0;-127.27;11.99;5.88;55.57;31.47;-16.41;-10.78;-229.76;-66.19;12.98;-51.45;14.49;-13.18;74.59;18.12;84.2;4.98;8.82;-301.33;-33.74;114.46;0.05;-0.54;-0.97
0;140.96;-14.35;7.45;248.77;36.66;-14.21;-13.33;-217.19;-86.9;6.01;467;17.94;-10.73;48.8;-24.5;120.99;5;7.93;-190.62;-25.93;206.84;2.03;5.32;-1.23
0;-128.25;6.42;6.23;58.69;29.65;-14.77;-8.14;-231.52;-55.08;10.38;-57.65;14.33;-13.09;63.91;28.44;70.19;3.38;8.29;-152.95;-34.34;123.56;1.75;-1;-0.94
0;138.84;-13;6.93;243.53;31.99;-11.38;-10.26;-214.44;-72.3;5.17;456.64;15.75;-10.68;49.5;-28.12;92.27;4.46;6.44;-235.81;-23.27;159.13;0.76;5.08;-0.75
