label;gyro_z_avg;gyro_x_avg;acc_y_stdev;gyro_z_stdev;gyro_x_stdev;acc_x_min;acc_z_min;gyro_z_min;gyro_x_min;acc_z_max;gyro_z_max;acc_x_max;acc_y_avg;gyro_x_max;gyro_y_avg;gyro_y_stdev;acc_z_stdev;acc_x_stdev;gyro_y_min;acc_y_min;gyro_y_max;acc_y_max;acc_x_avg;acc_z_avg
0;106.94;74.21;3.73;187.05;119.4;-9.75;-13.16;-160.26;-115.47;0.26;366.43;12.79;-10.03;236.35;-14.52;88.57;3.41;6.12;-191.66;-17.05;105.29;-2.61;5.55;-5.35
0;-105.88;-58.11;3.94;32.98;16.8;-11.26;-10.56;-184.1;-112.36;5.17;-60.39;15.06;-12.62;-29.74;26.94;65.07;3.9;6.98;-127.59;-26.28;146.91;-7.09;0.72;0.22
0;96.98;67.95;3.89;174.19;107.51;-12.95;-9.77;-175.16;-122.19;3.39;319.97;12.94;-10.78;200.72;-22.26;92.09;3.48;6.89;-247.06;-23.14;81.01;-5.22;5.31;-4.71
0;-111.57;-65.14;3.67;39.2;12.72;-11.75;-8.8;-183.86;-100.39;6.46;-50.77;21.31;-12.91;-38.4;19.84;77.44;3.95;7.69;-197.4;-24.72;134.46;-5.82;-0.15;0.14
0;116.33;79.69;3.54;189.48;121.47;-11.82;-11.01;-178.05;-136.94;1.35;370.48;19.38;-9.8;253.25;-8.6;93.28;3.94;6.87;-221.09;-20.86;170.94;-5.31;6.98;-5.63
0;-104.76;-56.52;3.46;30.94;14.39;-8.14;-7.1;-165.21;-92.29;8.04;-65.94;16.06;-12.38;-37.97;19.45;55.56;3.88;5.91;-135.17;-23.54;93.58;-6.34;0.57;0.15
0;90.95;57.94;3.7;184.46;108.9;-6.69;-12.21;-161.25;-117.84;2.74;345.92;18.76;-9.44;212.94;-9.27;88.26;3.49;7.49;-173.01;-17.23;190.08;-3.17;6.38;-5.17
0;-100.81;-52.64;3.56;35.24;19.06;-10.15;-10.47;-174.72;-86.6;9.23;-60.03;12.43;-12.73;-29.67;22.95;60.26;4.65;5.43;-127.39;-25.16;103.31;-7.36;0.35;0.2
0;95.09;64.34;4.78;201.44;113.06;-6.87;-13.27;-176.51;-123.08;4.39;404.24;19.44;-9.59;223.58;-22.92;82.19;3.59;6.83;-182.82;-19.37;126.94;-3.87;6.7;-5.3
0;-110.61;-61.07;3.52;43.15;20.17;-9.87;-10.61;-192.31;-97.24;10.83;-53.87;16.2;-13.03;-31.07;18.37;65.12;4.73;6.09;-158.16;-23.52;137.95;-6.45;-1.01;0.12
0;132.62;85.43;3.93;200.62;115.98;-9.97;-12.83;-178.75;-123.45;-1.48;402.51;21.09;-9.79;223.88;-7.59;84.33;4.09;6.94;-197.01;-22.03;131.17;-4.57;8.01;-6.11
0;-99.75;-59.27;3.93;31.73;13.7;-7.81;-10.65;-151.5;-85.36;14;-49.23;15.74;-12.71;-29.12;22.96;72.25;5.17;6.04;-188.62;-24.96;140.5;-7.03;0.22;-0.1
0;66.79;52.05;3.98;196.74;103.1;-14.54;-12.52;-190;-133.04;6.49;361.15;19.01;-10.94;185.53;-26.09;107.21;4.91;8.83;-268.18;-21.92;99.51;-3.3;5.22;-4.22
0;-106.58;-62.3;3.74;44.4;15.78;-12.83;-9.44;-185.7;-87.88;9.58;-45.71;12.96;-12.7;-30.76;20.41;73.43;3.99;6.07;-205.9;-20.4;105.33;-3.81;-1.14;0.19
0;135.85;88.56;4.96;209.79;123.09;-3.24;-11.9;-187.79;-133.4;-0.43;412.06;23.43;-8.75;275.27;7.14;87.29;3.91;7.18;-219.46;-20.42;194.48;-0.31;8.32;-5.91
0;-105.81;-57.38;3.92;42.03;20.49;-8.41;-10.07;-186.56;-97.71;11.01;-55.08;20.16;-12.63;-22.23;18.54;84.09;5.11;7.29;-219.12;-26.14;161.75;-4.34;0.1;0.33
0;104.07;61.92;4.89;193.54;111.27;-8.68;-11.15;-180.95;-117.92;6.12;358.77;20.17;-10.06;223.39;-22.74;67.7;3.66;7.34;-141.07;-23.3;138.29;-3.75;6.73;-5.16
0;-109.94;-60.73;3.79;42.44;11.77;-12.59;-11.28;-203.17;-79.92;10.71;-54.31;15.31;-12.85;-27.53;20.74;85.55;4.84;7.12;-169.44;-24.53;167.41;-7.01;-1.14;0.08
0;135.93;72.7;3.9;209.53;109.56;-11.31;-12.7;-187.64;-133.48;0.03;407.57;22.92;-9.97;209.86;-17.8;94.12;3.7;7.34;-225.55;-20.63;83.6;-4.45;7.17;-5.34
0;-98.56;-61.12;3.82;32.65;16.8;-6.93;-10.96;-156.44;-122.71;7.39;-58.49;16.71;-12.87;-32.27;28.41;70.67;4.14;5.95;-132;-23.97;107.05;-7.91;0.88;-0.44
0;79.01;59.07;3.52;196.9;108.02;-14.65;-13.07;-200.4;-131.26;5.38;358.95;14.6;-10.88;213.71;-25.78;97.61;4.65;8.2;-242.95;-19.19;98.31;-5.54;4.47;-4.4
0;-103.6;-62.1;4.25;41.05;17.78;-15.6;-11.45;-196.99;-99.54;11.12;-44.98;18.83;-13.09;-31.05;31.07;76.37;4.42;7.37;-179.21;-26.2;152.05;-5.92;-0.47;0.23
0;115.35;70.01;2.95;178.48;108.32;-11.21;-12.31;-169.38;-122.61;-0.26;352.7;15.34;-10.4;209.8;-28.84;68.14;3.46;5.95;-189.16;-19.69;55.8;-5.47;6.67;-5.1
0;-109.43;-62.41;4.2;42.73;15.5;-16.62;-7.45;-193.44;-93.76;7.78;-48.13;15.95;-13.08;-26.13;25.18;54.38;3.44;7.18;-121.73;-24.01;109.41;-5.52;-0.68;0.2
0;125.68;71.75;4.63;216.58;123.02;-7.99;-13.39;-165.87;-127.41;0.4;438.48;23;-9.75;276.17;-17.43;83.27;4.43;7.27;-191.47;-17.41;137.21;-0.48;7.51;-5.38
0;-105.87;-55.78;3.63;40.02;13.99;-13.87;-9.18;-178.28;-100.28;8.71;-48.85;17.08;-12.98;-25.19;28.24;72.27;4.04;6.99;-168.94;-23.52;116.57;-7.51;-0.48;0.23
0;103.46;57.59;3.1;195.52;111.45;-9.69;-10.4;-174.23;-118.33;1.36;352.87;19.8;-10.25;219.48;-31.86;81.35;3.43;7.46;-184.2;-17.27;122.63;-6.49;6.43;-4.69
0;-104.75;-60.33;2.83;37.8;14.99;-10.72;-8.06;-176.94;-93.12;7.29;-55.53;13.55;-12.46;-30.34;23.66;47.2;3.74;5.86;-101.15;-21.39;97.38;-8.08;-0.02;0.13
0;113.48;69.52;3.27;193.76;115.85;-10.92;-11.54;-171.55;-127.44;2.26;368.05;20.32;-10.6;231.95;-14.25;63.01;3.73;7.22;-164.19;-18.33;102.33;-5.19;6.34;-4.71
0;-106.22;-62.78;2.91;38.73;17.77;-8.03;-10.41;-176.05;-118.99;7.77;-56.37;10.91;-12.61;-31.93;20.41;55.94;4.16;5.27;-110.06;-20.92;80.58;-8.25;0.32;0.26
0;108.65;67.3;3.24;188.75;111.52;-7.93;-14.12;-162.34;-117.21;0.44;354.02;14.92;-10.26;224.74;-21.39;59.01;3.32;5.8;-142.21;-16.33;75.54;-3.72;5.78;-4.75
0;-108.6;-59.86;3.9;37.11;17.44;-9.32;-11.75;-181.95;-114.01;6.16;-52.7;15.06;-13.15;-36.98;18.14;77.05;4.35;5.98;-181.15;-25.04;118.5;-6.93;-0.38;0.03
0;119.66;72.63;3.08;185.49;114.46;-7.45;-10.71;-171.83;-132.3;0.25;353.57;15.2;-10.36;233.19;-14.18;79.21;3.87;5.82;-186.27;-18.25;85.39;-5.27;6.42;-4.97
0;-110.28;-63.24;3.82;39.68;14;-13.88;-9.09;-185.15;-91.07;11.28;-55.23;17.86;-13.12;-33.32;16.31;79.44;4.38;6.83;-166.2;-24.79;139.96;-7.26;-0.42;0.05
0;113.69;70;3.49;161.79;96.47;-12.07;-11.61;-164.37;-112.27;6.05;318.68;15.95;-10.37;202.62;-24.31;72.56;3.88;6.16;-219.6;-22.5;49.16;-5.53;7.21;-4.66
0;-112;-61.73;3.28;42.32;15.15;-12.47;-8.9;-193.58;-89.43;6.01;-51.28;9.41;-12.68;-30;30.22;52.59;3.76;5.7;-102.77;-20.42;99.43;-6.96;-0.65;-0.08
0;125.7;76.83;3.21;184.99;122;-11.57;-11.12;-171.46;-128.25;-0.35;355.71;17.94;-10.4;244.57;-19.13;74.35;3.12;6.98;-164.74;-21.67;108.01;-5.92;6.77;-5.29
0;-96.82;-57.98;4.59;33.6;19.93;-6.28;-9.39;-159.66;-91.99;6.24;-49.43;21.71;-12.77;-28.86;30.72;73.6;3.97;6.5;-187.07;-27.44;124.72;-3.95;1.07;-0.73
0;73.1;53.97;3.45;203.01;114.7;-13.81;-12.48;-187.93;-123.06;6.48;383.26;22.63;-10.83;232.42;-18.67;68.8;4.77;9.04;-207.4;-18.57;73.73;-5.51;4.47;-3.88
0;-106.9;-62.77;3.2;40.58;16.34;-8.76;-7.17;-182.23;-95.53;7.41;-49.17;17.75;-12.56;-35.61;21.89;71.94;4.15;6.49;-189.28;-22.43;115.89;-6.34;-0.1;0.14
0;115.32;71.69;3.43;190.41;117.83;-8.65;-10.18;-177.22;-125.21;0.84;328.99;17.17;-10.34;227.73;-23.92;70.27;3.48;6.54;-176.58;-18.93;92.14;-3.99;6.35;-5.14
0;-111.92;-61.22;3.94;42.23;20.43;-10.12;-10.13;-187.73;-117;6.75;-51.16;13.9;-13.32;-30.62;23.59;53.32;4.15;5.82;-100.65;-25.58;95.39;-7.21;-0.28;0.13
0;121.84;77.46;3.24;193.09;118.94;-10.41;-11.13;-174;-127.39;-0.2;373.13;19.46;-10.06;237.79;-17.04;73.58;3.75;6.38;-196.4;-18.34;99.33;-3.98;6.56;-5.23
0;-102.4;-61.92;3.81;39.59;19.1;-7.41;-8.9;-171.67;-105.69;11.64;-56.45;18.38;-12.5;-38.46;25.32;73.49;4.52;6.44;-186.27;-24.74;148.89;-4.44;0.78;-0.18
0;95.97;59.23;3.32;193.57;114.64;-12.71;-11.61;-173.66;-125.67;1.51;363.74;15.82;-10.36;242.41;-25.35;61.35;3.44;6.65;-183.09;-19.05;69.43;-5.24;5.76;-4.91
0;-105.1;-65.9;3.31;41.21;18.38;-8.53;-10.43;-183.97;-112.37;10.47;-40.61;15.99;-12.95;-43.8;26.49;71.04;4.51;6.01;-156.92;-22.79;133.71;-6.87;-0.19;0.11
0;114.75;75.35;4.11;209.68;127.61;-9.22;-10.82;-184.18;-123.66;-0.61;395.8;18.13;-10.23;275.27;-14.34;68.33;3.57;6.84;-152.11;-18.84;123.58;-4.36;6.61;-4.89
0;-106.27;-62.06;3.28;42.18;18.55;-10.67;-9.64;-186.63;-115.2;6.54;-49.75;15.07;-12.84;-35.29;23.55;69.25;3.99;6.25;-145.38;-22.2;107.66;-7.7;0.09;0.1
0;97.4;55.89;3.64;194.82;114.54;-9.14;-10.46;-182.96;-123.21;1.1;365.32;15.89;-10.35;224.54;-28.7;63.37;2.95;6.08;-182.41;-19.2;72.94;-5.61;5.82;-4.61
0;-106.94;-60.12;3.14;47.2;23.58;-11.44;-7.3;-193.85;-102.17;7.48;-44.85;16.61;-12.58;-32.5;28.01;65.54;4.41;6.25;-141.36;-22.51;114.53;-5.02;-0.03;0.11
0;118.26;65.09;3.57;189.67;105.82;-12.92;-9.55;-171.96;-108.06;0.78;354.02;14.33;-10.81;210.33;-34.21;62.07;3.14;6.18;-167.49;-20.31;52.06;-6.1;6.41;-5.04
0;-106.97;-63.27;3.1;46.83;19.87;-11.68;-10.08;-190.76;-94.79;6.64;-50;14.96;-12.71;-36.4;29.75;50.16;3.88;6.05;-94.62;-20.41;100.22;-5.92;-0.29;-0.13
0;117.52;70.4;4.23;190.24;118.49;-9.43;-10.3;-174.92;-125.19;5.62;356.5;17.38;-10.06;247.24;-22.04;71.26;3.09;6.27;-126.77;-22.05;159.88;-4.54;6.82;-4.52
0;-101.48;-57.68;3.55;46.45;22.95;-9.2;-11.78;-182.42;-103.28;8.08;-44;19.9;-12.21;-23.74;27.42;64.25;4.55;6.77;-165.51;-22.21;130.35;-4.6;0.12;-0.44
0;102.38;58.39;4.25;204.74;113.29;-11.04;-9.36;-187.65;-137.91;3.09;379.91;18.9;-10.68;207.87;-23.25;73.47;3.22;7.04;-194.95;-22.53;84.95;-6.11;5.53;-4.33
0;-105.83;-55.55;3.97;48.72;22.49;-11.04;-10.71;-201.11;-103.52;8.6;-42.11;21.39;-12.86;-25.41;23.18;71.95;4.23;7.41;-176.86;-25.55;141.31;-4.89;-0.01;-0.36
0;122.04;65.1;3.92;193.64;108.09;-9.24;-9.91;-186.3;-126.68;-0.76;380.5;18.06;-9.54;226.2;-27.23;72.18;3.14;6.33;-177.64;-19.94;86.64;-4.24;7.09;-4.88
0;-109.43;-58.38;3.32;45.3;18.54;-9.42;-8.28;-199;-96.52;6.93;-51.86;13.02;-12.87;-32.2;23.06;64.87;3.54;5.88;-118.09;-22.79;129.37;-6.1;-0.6;-0.28
0;134.51;76.64;3.74;211.33;121.42;-8.32;-10.65;-194.29;-130.12;0.63;409.38;17.88;-10;258.58;-15.5;63.85;3.66;6.03;-156.59;-17.97;94.24;-5.1;7.1;-4.94
0;-108.09;-58.35;3.76;43.48;15.47;-13.05;-11.01;-193.67;-108.67;8.64;-32.49;19.02;-13.09;-29.58;16.09;88.12;4.26;7.18;-173.51;-24.05;145.34;-8.22;-0.51;-0.01
0;120.69;59.98;3.16;184.96;100.18;-6.41;-11.6;-173.43;-120.56;-0.91;367.29;15.79;-9.81;208.41;-28.8;76.96;3.07;4.81;-197.88;-19.29;60.17;-5.56;6.77;-4.57
0;-106.53;-59.05;3.48;46.54;18.54;-10.49;-7.96;-187;-98.25;6.49;-38.73;16.32;-12.76;-24.91;23.03;58.91;3.62;6.79;-125.27;-23.5;112.81;-5.84;-0.28;0.1
0;122.26;68.48;3.82;193.63;116.35;-4.4;-11.71;-165.05;-121.65;0.96;368.26;19.98;-9.98;240.88;-20.67;51.02;3.73;5.97;-148.83;-19.26;52.61;-5.37;6.92;-4.95
0;-109.16;-58.22;3.72;41.67;15.28;-9.04;-7.78;-189.82;-94.9;8.84;-51.67;17.22;-12.87;-33.09;19.86;70.28;3.76;6.45;-147.18;-25.05;124.78;-6.99;-0.3;-0.1
0;121.88;63.08;3.25;190.53;116.37;-5.09;-12.01;-183.15;-137.89;-0.22;369.79;20.25;-9.54;247.65;-25.45;61.4;3.54;5.96;-125.29;-16.86;114.47;-3.8;6.68;-4.86
0;-105.44;-62.11;3.91;44.65;16.12;-13.96;-10.6;-188.05;-108.54;9.1;-44.22;15.3;-13.07;-36.23;21.04;74.53;4;6.86;-165.98;-25.88;138.32;-6.39;-0.26;-0.1
0;98.94;66.94;4.04;171.07;117.13;-10.46;-10.56;-169.62;-131.63;0.34;310.13;13.51;-10.76;215.32;-36.92;60.2;3.65;5.62;-180.99;-23.01;71.58;-5.13;6.67;-5.03
0;-96.26;-64.3;3.68;48.04;22.04;-12.32;-9.47;-182.44;-112.77;5.08;-36.51;20.13;-12.3;-36.51;37.18;48.76;3.63;6.7;-91.83;-19.47;104.71;-4.21;-0.24;-0.38
0;112.19;64.87;4.49;183.35;116.93;-10.8;-13.17;-169.4;-120;4.05;357.49;21.45;-10.57;219.1;-13.05;60.55;3.83;7.64;-131.18;-26.42;117.44;-4.79;6.88;-4.75
0;-113.53;-53.78;4.32;46.14;16.92;-10.69;-9.07;-200.91;-88.79;9.61;-56.3;19.78;-12.67;-29.16;25.68;69.7;3.96;7.24;-172.03;-27.9;149.01;-3.28;-0.76;-0.14
0;121.95;79.51;3.63;195.16;122.66;-9.81;-9.97;-187.88;-123.58;-0.29;381.15;18.44;-9.89;246.68;-30.7;72.51;3.16;6.38;-185.49;-20.5;101.39;-5.34;6.98;-5.04
0;-106.74;-59.76;3.75;44.51;17.05;-9.83;-8.79;-188.04;-100.78;5.88;-48.89;18.07;-12.87;-34.72;18.87;66.2;3.24;6.74;-152.64;-23.51;110.94;-5.35;-0.07;-0.28
0;107.19;66.36;4.8;181.68;124.6;-8.21;-12.28;-178.49;-118.53;7.06;333.21;18.17;-10.81;247.5;-27;58.76;4.47;5.98;-173.42;-26.55;66.54;-4.89;6.73;-4.59
0;-104.94;-62.63;3.43;44.27;15.04;-13.09;-12.25;-191.08;-100.83;7.76;-43.11;20.24;-12.08;-35.2;31.41;76.07;4.49;7.83;-187.63;-23.46;138.32;-3.54;-0.6;-0.13
0;105.02;67.44;5.54;189.81;123.49;-9.74;-11.18;-175.06;-106.51;10.23;362.61;14.9;-11.17;260.01;-20.69;66.47;4.79;6.25;-179.63;-24.05;59.43;-4.25;6.63;-4.55
0;-109.79;-64.54;3.58;43.46;16.33;-10.72;-11.48;-191.3;-93.39;6.63;-47.59;20.88;-12.41;-32.59;25.45;81.09;4.2;7.35;-220.74;-21.61;164.17;-3.95;-0.27;-0.27
0;113.33;63.87;4.03;184.41;119.02;-9.75;-10.81;-181.87;-116.15;-0.24;363.35;16.28;-9.45;242.59;-24.34;55.46;3.03;6.44;-164.68;-19.35;49.41;-5.38;7;-5.04
0;-107.84;-54.18;3.86;49.22;16.85;-10.45;-8.91;-202.46;-90.1;9.06;-50.41;14.02;-13.11;-27.2;26.72;61.86;4.03;6.17;-128.57;-24.74;98.26;-7.14;-0.8;0
0;120.99;67.59;3.55;193.3;114.51;-6.38;-11.68;-188.81;-123.29;-1.74;380.92;22.94;-8.89;240.26;-32.16;70.64;3.35;6.66;-168.48;-19.53;93.18;-3.87;7.36;-5.3
0;-110.63;-55.96;4.02;46.15;16.85;-12.09;-7.78;-206.22;-96.37;5.9;-51.29;18.02;-13.31;-24.9;21.6;72.18;3.3;7.25;-143.07;-25.53;150.47;-7.14;-0.96;-0.2
0;125.01;81.8;4.12;195.26;129.31;-5.77;-13.15;-181.98;-140.63;-0.32;388.94;19.93;-9.34;264.55;-18.87;65.84;3.84;5.78;-169.9;-18.01;102.14;-3.49;7.26;-5.55
0;-108.08;-59.72;4.73;52.64;24.66;-12.15;-11.06;-211.87;-118.36;12.59;-51.17;22.05;-13.46;-31.73;19.02;91.87;4.96;8.31;-226.47;-28.73;149.7;-4.38;-0.62;-0.53
0;115.73;71.77;4.26;182.52;111.51;-7.82;-11.06;-195.54;-106.78;0.05;332.56;14.41;-9.86;210.18;-35.32;76.43;3.28;5.19;-201.98;-21.4;88.59;-4.92;7.58;-5.27
0;-107.62;-59.58;3.65;45.49;14.31;-14.68;-5.91;-203.02;-95.64;5.73;-52.74;11.21;-12.78;-33.42;38.17;51.66;2.91;6.33;-135.26;-22.83;111.34;-6.08;-1.08;-0.01
0;117.71;70.67;4.35;186.76;118.09;-7.12;-11.32;-187.25;-119.94;0.4;363.99;21.17;-9.57;245.74;-28.41;56.86;3.54;6.64;-156.6;-19.98;52.15;-4.03;7.15;-5.35
0;-93.26;-57.66;4.23;32.44;20.92;-8.39;-9.05;-150.59;-108.58;8.7;-50.17;23.17;-12.59;-39.66;31.11;76.79;3.65;7.03;-201.93;-26.46;129.65;-4.51;0.89;-1.13
0;77;55.88;4.18;195.85;120.85;-13.78;-12.62;-188.84;-123.53;4.47;349.17;21.71;-10.37;226.8;-20.09;62.6;4.14;8.19;-156.71;-20.83;82.56;-3.95;5.05;-4.28
0;-104.32;-58.98;4.44;41.25;18.08;-12.04;-9.71;-194.14;-101.38;10.4;-48.2;18.53;-12.83;-28.8;26.03;66.76;4.56;7.01;-157.14;-27.93;139.85;-4.38;-0.25;-0.13
0;98.72;64.24;4.77;198.76;128.09;-10.37;-10.19;-183.18;-121.33;0.53;371.77;17.01;-9.81;254.24;-26.74;58.51;2.87;5.94;-152.84;-20.69;71.3;-3.64;5.95;-4.52
0;-102.7;-57.03;3.82;39.96;21.47;-14.34;-7.2;-180.77;-107.04;3.67;-51.42;20.2;-12.22;-37.17;24.91;57.41;3.07;6.97;-119.82;-24.8;106.67;-3.43;0.93;-0.52
0;100.03;66.05;4.93;189.68;128.39;-13.52;-11.39;-166.93;-118.22;1.28;347.89;18.45;-10.29;272.38;-17.82;76.92;3.4;6.84;-187.28;-18.7;156.45;-2.64;6.24;-4.6
0;-94.66;-50.05;4.57;35.96;20.62;-4.12;-9.43;-144.73;-101.89;5.62;-38.68;18.99;-12.55;-20.7;20.59;50.96;3.74;6.09;-114.8;-26.76;103.17;-4.87;2.09;-0.69
0;115.3;82.61;4.21;171.86;112.56;-11.32;-10.41;-162.26;-104.01;-0.64;337.37;16.97;-9.88;236.12;-3.47;59.96;3.12;6.13;-119.75;-19.04;111.39;-4.52;7.57;-5.76
0;-104.73;-57.24;3.75;34.55;17.33;-6.07;-9.6;-164.76;-99;5.67;-54.86;12.36;-12.41;-31.81;18.63;58.26;3.21;5.29;-112.02;-24.35;104.23;-7.02;0.07;-0.01
0;88.92;54.86;4.53;174.47;113.93;-7.64;-12.97;-166.79;-121.67;1.95;317.49;16.92;-10.86;196.69;-23.52;81.47;3.5;6.57;-144.79;-25.05;175.66;-4.01;6.46;-4.64
0;-107.42;-59.93;3.91;36.64;21.33;-12.2;-7.32;-189.01;-112.32;2.99;-52.9;20.79;-12.06;-39.8;18.08;56.72;2.76;6.76;-122.79;-21.86;131.76;-4.88;-0.06;-0.54
0;112.13;61.45;4.24;177.9;114.79;-4.97;-9.7;-181.86;-110.14;0.7;347.92;19.04;-9.64;216.37;-14.57;56.13;2.53;5.54;-142.88;-20.94;112.18;-3.33;7.74;-4.81
0;-109.35;-54;3.64;37.59;17.02;-12.35;-7.97;-189.61;-86.91;5.41;-63.99;13.6;-12.61;-37.18;21.34;45.11;3.26;5.96;-80.89;-25.31;92.84;-6.5;-0.28;-0.02
0;106.7;61.19;4.68;180.13;105.93;-11.46;-11.4;-185.75;-108.31;0.82;352.3;22.13;-9.92;212.19;-19.9;66.4;3.17;6.26;-178.41;-19.53;79.62;-2.94;7.09;-4.85
0;-113.79;-63.46;3.9;40.71;24.26;-11.23;-8.44;-188.02;-108.81;6.64;-63.45;15.9;-12.91;-38.06;20.83;47.7;3.94;6.36;-100.97;-24.6;81.45;-6.17;-0.09;-0.24
0;125.63;76;4.21;183.79;106.3;-9.19;-10.63;-185.02;-94.94;0.67;348.09;20.93;-9.26;217.34;-13.09;55.52;2.68;6.06;-125.96;-19.71;105.36;-4.12;7.78;-5.1
0;-118.09;-58.46;3.79;45.4;22.6;-11.07;-7.36;-197.87;-111.14;6.1;-56.8;17.49;-13.04;-27.77;12.99;67.22;3.71;6;-142.48;-23.22;85.66;-8.46;-1.13;-0.04
0;138.17;78.95;3.01;185.65;112.67;0.27;-9.69;-176.28;-109.99;-1.14;365.4;16.89;-8.89;216.95;-19.33;54.07;2.92;4.18;-127.5;-16.51;98.05;-5.34;7.33;-4.68
0;-109.07;-55.73;3.9;45.77;20.16;-11.45;-8.67;-191.88;-90.07;8.98;-48.52;19.54;-12.91;-27.85;20.61;71.46;4.13;6.96;-158.6;-24.48;155.92;-5.37;-0.22;0.14
0;121.67;66.24;3.68;196.04;115.03;-9.02;-10.61;-178.85;-121.66;-0.41;367.71;18.5;-9.86;231.77;-20.09;59.57;3.1;5.61;-145.88;-18.71;71.68;-3.29;6.5;-4.7
0;-109.91;-63.03;3.71;45.64;16.86;-8.51;-8.58;-188.73;-100.17;8.55;-45.77;14.21;-13.38;-40.96;15.17;73.12;3.85;6.03;-145.7;-23.04;119.69;-7.97;-0.25;-0.1
0;130.32;71.62;4.04;192.71;110.73;-3.56;-13.31;-173.45;-125.99;2.34;383.24;21.87;-9.62;229.74;-15.01;49.68;3.71;5.63;-116.87;-20.71;41.03;-4.11;6.79;-4.72
0;-106.19;-63.37;3.85;47.01;20.63;-10.16;-12.16;-190.83;-104.83;12.01;-55.95;16.81;-12.49;-37.99;16.74;77.71;5.52;6.78;-183.61;-24.54;156.32;-2.54;0.34;0.12
0;103.81;54.59;4.71;187.91;109.88;-6.75;-10.19;-185.96;-111.54;5.98;340.23;17.62;-10.51;203.73;-18.1;54.22;3.15;6.28;-122;-21.25;86.65;-5.12;6.01;-4.2
0;-107.6;-57.97;3.42;44.43;21.21;-8.81;-10.36;-189.72;-98.82;9.24;-48.35;18.64;-12.32;-31.23;25.54;62.16;4.17;6.46;-141.44;-22.78;144.22;-5.48;0.06;-0.17
0;110.47;65.23;4.86;193.65;122.9;-8.83;-8.67;-181;-129.11;1.86;367.33;14.05;-10.34;239.19;-24.82;43.31;2.57;5.35;-114.36;-21.95;49.67;-4.66;6.01;-4.28
0;-108.3;-61.76;4.78;49.96;24.6;-9.22;-10.04;-195.8;-109.8;9.29;-49.55;18.37;-13.07;-34.11;15.94;69.62;4.58;6.97;-149.51;-27.47;104.18;-1.41;-0.27;-0.24
0;127.68;61.49;4.34;202.99;116.67;-0.92;-12.13;-189.83;-131.78;6.48;389.7;20.75;-9.45;225.97;-11.76;49.15;3.65;5.07;-154.18;-20.77;61.27;-3.02;6.66;-4.16
0;-109.47;-58.04;3.81;48.8;26.69;-9.73;-12.4;-198.92;-110.35;13.37;-53.34;20.34;-12.82;-26.43;18.52;86.21;5.1;7.2;-211.88;-24.64;146.77;-4.38;0.21;-0.36
0;120.9;67.93;3.08;167.68;107.3;-5.9;-8.75;-180.67;-99.37;0.9;304.15;12.97;-9.96;208.37;-35.43;49.34;2.72;4.65;-136.54;-19.03;46.21;-6.37;7.16;-4.57
0;-103.01;-64.48;3.28;42.19;14.78;-9.42;-7.86;-190.62;-105.52;5.9;-47.7;13.38;-12.34;-40;30.74;43.84;3.2;5.72;-71.8;-22.18;103.5;-5.9;-0.27;0.09
0;106.03;62.26;4.8;196.91;124.01;-8.98;-13.3;-189.11;-121.45;0.76;378.15;24.45;-10.04;231.28;-19.74;45.64;3.41;7.14;-124.17;-21.59;92.59;-4.42;6.39;-4.84
0;-108.28;-61.58;4.17;43.94;18.59;-10.62;-10.41;-200.01;-97.73;13.08;-62.74;14.06;-13.01;-42.31;19.46;70.52;4.82;6.64;-147.37;-24.08;120.76;-5.68;-0.15;-0.05
0;130.87;69.65;3.46;187.95;111.59;-7.07;-10.85;-183.72;-104.23;-0.57;355.47;19.62;-9.71;219.35;-24.56;63.34;3.27;5.45;-167.49;-19.66;88.58;-3.83;6.7;-4.6
0;-114.65;-62.45;4.48;52.72;21.49;-9.6;-7.9;-216.37;-101.92;7.08;-54.04;16.89;-13.5;-33.75;17.91;67.13;3.9;6.77;-136.76;-26.29;115.83;-6.78;-0.22;-0.11
0;135.3;69.82;4.36;197.4;109.9;-5.76;-13.94;-193.32;-121.42;-0.63;386.69;25.59;-8.51;224.69;-13.62;60.28;3.53;6.66;-142.85;-20.08;83.45;-3.51;7.62;-4.86
0;-109.23;-54.06;4.49;46.27;21.94;-11.82;-12.97;-202.91;-94.39;13.77;-40.31;21.21;-12.92;-12.52;19.24;79.06;5.38;7.74;-201.57;-26.5;187.85;-6.08;-0.4;0.05
0;112.53;57.49;4.88;185.27;106.29;-9.52;-11.26;-191.73;-123.13;5.64;357.52;22.33;-9.73;213.38;-27.1;57.77;3.26;6.27;-143.08;-25.01;64.33;-3.66;6.76;-4.41
0;-111.62;-56.31;4.08;46.44;21.94;-13.22;-8.11;-206.77;-102.66;8.99;-58.93;17.35;-12.57;-33.98;16.33;55.05;3.57;6.74;-126.22;-25.16;118.08;-4.89;-0.33;-0.44
0;118.75;67.89;4.61;188.71;121.21;-7.18;-15.87;-191.66;-119.83;8.09;376.92;23.76;-9.92;242.86;-16.15;51.92;4.49;6.63;-122.68;-23.73;64.59;-4.04;7.72;-4.78
0;-112.34;-59.72;4.2;44.83;18.46;-12.84;-11.17;-200.86;-91.86;15.32;-63.18;20.26;-12.72;-38.06;11.83;85.5;5.14;7.8;-202.15;-27.11;185.64;-3.48;-0.52;0.04
0;104.14;60.52;4.97;187.21;110.2;-7.5;-12.16;-192.34;-121.23;6.07;338.62;22.95;-10.4;221.12;-12.75;61.83;3.59;6.58;-163.2;-26.25;87.31;-4.19;6.91;-4.3
0;-106.45;-62.83;4.33;45.1;26.71;-8.27;-14.21;-184.25;-122.72;7.12;-48.57;23.17;-11.99;-34.41;8.93;72.51;4.79;7.35;-194.09;-24.22;136.9;-1.78;0.53;-0.57
0;110.77;79;4.81;179.06;118.33;-10.14;-11.67;-180.14;-117.21;0.59;330.22;13.57;-10.27;238.37;-5.34;53.3;3;5.89;-129.26;-21.82;110.5;-5.79;6.96;-5.3
0;-109.43;-56.55;4.54;47.31;17.59;-9.86;-8.4;-202.21;-92.81;11.89;-54.8;18.08;-13.15;-31.37;18.01;77.21;4.14;6.73;-171.43;-26.77;176.77;-5.18;-0.8;0.07
0;123.89;65.05;4.11;182.84;110.07;-2.98;-11.66;-182.53;-112.63;10.07;356.02;19.05;-9.7;222.74;-15;44.67;4.08;5.54;-102.23;-24.88;64.7;-3.9;6.8;-4.22
0;-112.7;-60.87;4.44;51.58;22.09;-8.77;-12.05;-202.07;-101.95;14.44;-56.35;20.41;-13;-36.81;13.71;83.42;5.13;7.4;-225.69;-27.48;162.39;-3.98;-0.52;-0.24
0;127.76;66.6;4.79;192.67;111.56;-3.79;-13.66;-186.27;-125.91;9.89;371.32;24.37;-9.66;224.84;-14.82;51.08;4.24;6.27;-126.45;-26.71;61.09;-4.42;7.43;-4.42
0;-111.61;-63.93;4.02;45.26;24.43;-7.89;-13.23;-188.23;-122.33;13.65;-52.19;16.46;-12.25;-35.2;12.6;69.36;5.14;6.37;-185.47;-26.23;134.02;-3.06;-0.13;-0.2
0;118;71.22;4.19;175.35;114.04;-7.12;-11.12;-173.09;-103.74;-1.04;320.35;18.6;-10.35;226.81;-18.03;43.17;3.13;5.76;-92.96;-21.86;69.9;-4.58;6.93;-4.78
0;-110;-61.29;4.46;44.66;17.89;-10.43;-7.12;-197.82;-111.13;9.29;-59.13;16.89;-12.84;-36.08;16.4;51.7;3.68;5.71;-118.45;-26.73;91.44;-6.59;-0.57;0.53
0;114;60.87;3.87;175.21;109.5;-8.06;-11.15;-185.93;-109.57;5.57;315.4;16.37;-10.47;214.35;-22.53;47.54;3.56;5.37;-141.99;-23.66;42.74;-4.45;6.84;-4.2
0;-113.33;-67.46;4.36;42.53;23.04;-8.79;-8.43;-187.82;-117.53;7.99;-61.44;15.58;-12.75;-44.39;10.68;55.26;3.69;5.62;-113.09;-25;104.25;-4.9;-0.23;-0.2
0;139.99;71.7;4.52;195.03;123.99;-1.78;-15.02;-174.25;-124.12;5.4;386.11;23.73;-10.18;243.69;-7.62;40.17;4.54;5.99;-100.34;-22.07;50.69;-3.9;7.41;-4.36
0;-105.8;-64.12;3.7;46.37;22.98;-8.82;-10.8;-194.68;-111.12;13.16;-54.02;21.81;-12.46;-38.75;14.89;86.04;5.41;7.97;-230.01;-24.89;167.92;-3.89;0.12;0.16
0;109.59;61.17;5.85;204.65;124.15;-6.46;-11.57;-188.63;-111.57;4.62;371.68;23.1;-10.72;248.39;-13.72;57.17;3.43;6.17;-127.44;-23.35;84.19;-3.72;5.99;-4.19
0;-108.16;-63.34;4.32;44.14;24.08;-9.08;-13.02;-186.61;-116.67;10.58;-34.59;19.37;-12.67;-18.25;2.64;67.94;4.8;6.88;-168.29;-25.68;145.04;-2.7;0.13;0.05
0;132.79;77.42;4.07;188.31;121.94;-2.22;-12.39;-174.33;-124.23;0.16;372.55;20.81;-9.73;244.24;-8.87;54.47;3.98;5.44;-89.78;-19.62;102.42;-4.93;7.42;-4.73
0;-111.85;-63.43;3.74;45.07;19.41;-11.73;-6.74;-201.42;-110.4;9.93;-62.62;19.01;-12.88;-43.84;13.74;63.72;3.97;6.72;-163.47;-24.52;109.83;-6.19;-0.47;0.2
0;118.37;64.12;4.56;186.52;124.98;-7.6;-12.66;-191.87;-118.78;2.58;357.17;18.64;-10.22;266.17;-23.73;47.99;3.92;6.49;-140.99;-21.86;52.57;-4.4;7.06;-4.79
0;-105.97;-62.72;4.01;44.54;19.35;-11.4;-8.31;-192.63;-106.14;10.23;-57.2;15.45;-12.71;-43.35;18.45;56.85;3.94;6.26;-125.14;-26.04;95.7;-4.64;-0.4;0.01
0;119.69;67.71;3.81;190.28;125.54;-6.27;-12.65;-173.17;-108.54;-0.16;363.57;20.09;-10.29;252.46;-17.67;56.34;3.64;5.64;-160.65;-18.98;101.27;-3.89;6.38;-4.68
0;-90.7;-55.52;4.25;37.61;20.26;-8.18;-7.99;-161.32;-99.75;10.78;-45.75;19.28;-12.62;-32.7;20.63;75.26;4.13;6.87;-162.91;-26.38;146.19;-3.84;1.45;-0.51
0;70.64;42.46;4.61;198.9;125.74;-12.81;-10.91;-195.27;-115.24;4.81;339.78;18.25;-11.38;243;-23.88;49.31;4.39;7.13;-120.94;-21.4;50;-4.74;4.36;-3.36
0;-111.2;-66.64;3.84;49.87;25.21;-9.85;-8.21;-204.3;-121.22;7.18;-50.3;17.97;-12.78;-41.85;15.41;61.65;4.09;6.49;-133.66;-24.05;120.24;-4.64;-0.46;-0.03
0;129.95;73.32;3.5;185.18;118.5;-2.46;-9.86;-164.74;-119.36;1.37;356.89;16.52;-9.75;233.42;-5.02;55.13;3.32;5.16;-149.04;-21.29;110.41;-4.82;7.77;-4.75
0;-109.84;-56.47;4.68;48.78;26.11;-8.81;-9.52;-204.02;-105.02;9.37;-51.23;18.9;-12.82;-26.74;13.23;58.83;4.64;6.98;-149.85;-27.47;128.16;-2.63;-0.11;-0.18
0;129.28;64;5.12;201.77;111.58;-5.02;-16.21;-195.54;-118.63;3.63;395.61;30.02;-9.6;236.6;-16.7;79.33;4.53;7.39;-156.22;-23.65;122.85;-2.8;7.64;-4.67
0;-108.89;-59.53;4.06;45.47;24.14;-9.89;-10.39;-198.16;-116.85;12.84;-50.49;12.88;-12.79;-29.46;7.85;65.02;4.85;5.85;-123.87;-27.81;148.3;-6.37;-0.5;0.39
0;120.21;76.77;4.65;183.63;119.43;-4.67;-12.07;-184.73;-116.11;5.16;357.56;21.57;-10.18;243.25;-12.64;53.16;4.18;5.92;-132.08;-24.42;103.79;-4.87;7.33;-5.01
0;-108.69;-61.6;3.81;48.76;23.18;-8.43;-9.89;-203.2;-118.54;9.78;-50.73;14.95;-12.76;-33.08;19.99;56.7;4.03;6.14;-101.58;-24.67;122.13;-6.29;-0.63;-0.03
0;131.45;67.07;4.18;191.08;116.87;-6.25;-11.48;-180.95;-124.28;-0.04;376.5;20.12;-9.65;227.07;-13.61;55.6;3.62;5.68;-119.61;-19.72;80.28;-3.41;6.77;-4.46
0;-113.22;-60.63;4;49.56;22.98;-11.47;-9.03;-215.48;-110.19;12.21;-54.62;17.35;-13.15;-34.25;10.58;67.91;4.37;7.29;-146.72;-24.16;136.15;-6.82;-0.31;0.2
0;125.5;67.65;5.21;205.91;126.85;-2.56;-16.12;-200.22;-144.46;2.81;416.17;27.28;-8.77;268.12;-11.73;52.51;4.2;7.32;-120.94;-20.67;90.08;-1.12;8.06;-4.91
0;-113.54;-62.54;4.28;47.05;17.96;-9.06;-11.84;-201.73;-101.47;16.43;-33.18;15.41;-13.13;-35.86;6.37;79.82;5.59;6.59;-200.38;-27.27;154.17;-6.57;-0.56;0.29
0;125.26;60.17;4.39;202.56;112.22;-2.52;-12.5;-188.53;-102.41;7.42;390.9;23.48;-10;226.38;-9.58;60.43;3.8;6.05;-147.2;-22.2;95.74;-3.21;7.1;-4.19
0;-102.08;-56.4;3.95;42.6;24.01;-7.94;-13.01;-181.9;-103.82;12.85;-54.04;24.69;-12.11;-32.02;16.75;81.83;4.89;7.57;-211.29;-25.57;189.05;-2.87;0.84;-0.23
0;103.85;56.78;4.19;194.25;106.6;-7.91;-12.1;-173.31;-112.81;0.39;375.61;23.64;-10.39;215.83;-21.6;61.05;3.4;7.05;-125.08;-19.99;114.47;-4.16;6.44;-4.64
0;-113.71;-61.87;4.16;43.46;22.17;-8.38;-6.6;-196.58;-103.63;7.33;-63.38;15.55;-12.86;-30.68;17.62;55.53;2.99;6.19;-105.15;-23.07;114.46;-4.89;0.01;-0.25
0;120.9;71.92;3.93;179.79;106.79;-3.44;-10.04;-183.44;-115.08;0.5;354.66;20.64;-9.25;219.23;-10.85;55.28;2.57;5.3;-112.53;-19.96;98.76;-3.43;7.24;-4.39
0;-109.48;-62.05;4.5;46.78;26.42;-9.4;-11.08;-199.4;-111.07;6.84;-52.32;21.66;-12.42;-32.49;10.17;68.5;4.06;7.36;-172.21;-24.62;136.57;-2.25;0.64;-0.47
0;112.01;71.5;4.41;182.09;109.26;-9.6;-11.59;-193.81;-97.85;2.06;336.56;20.09;-10.17;212.21;-15.86;64.36;3.57;6.21;-152.44;-23.43;81.74;-4.16;7.69;-5.01
0;-105.23;-57.62;2.74;39.44;17.9;-8.94;-7.74;-179.56;-102.66;5.63;-48.33;14.84;-12.06;-33.42;28.88;54.33;3.33;5.78;-83.04;-20.82;146.9;-6.65;0.01;0.07
0;98.95;61.21;4.81;184.92;108.81;-7.31;-10.55;-178.14;-127.36;1.21;360.61;25.43;-9.77;210.98;-15.85;50.76;2.68;7.67;-137.92;-18.54;119.74;-1.04;6.1;-4.57
0;-107.3;-61.37;4.27;47.92;23.94;-9.62;-8.22;-199.34;-107.21;6.64;-56.84;19.07;-12.95;-30.6;16.32;74.39;3.6;7.41;-174.99;-25.99;132.81;-4.27;-0.16;-0.34
0;104.14;62.47;4.49;183.57;112.3;-5.54;-9.84;-186.5;-105.97;5.05;339.78;17.92;-10.17;219.75;-20.53;49.78;3.24;5.27;-128.11;-21.61;54.71;-4.99;6.79;-4.37
0;-109.38;-64.29;3.72;45.66;25.19;-10.2;-9.3;-188.33;-112.19;5.15;-54.31;15.13;-12.65;-36.95;11.96;59;3.48;6.44;-117.67;-21.85;115.08;-5.11;0.09;-0.57
0;137.75;67.58;4.52;187.93;111.23;-2.03;-13.07;-171.33;-111.54;7.99;378.19;24.52;-9.33;219.92;-4.59;51.35;3.86;5.93;-123.57;-24.49;84.95;-2.71;7.66;-4.27
0;-110.75;-59.12;4.53;45.73;23.08;-10.89;-11.4;-201.72;-104.7;15.46;-59.93;19.98;-12.78;-34.93;12.96;89.36;4.96;7.89;-236.17;-28.72;185.22;-3.36;-0.36;-0.2
0;124.17;69.64;4.19;195.38;112.32;-6.02;-12.01;-191.72;-122.27;-1.81;393.28;24.59;-9.7;224.11;-15.04;60.87;3.26;6.51;-143.37;-21.47;92.11;-3.21;7.26;-4.73
0;-106.87;-58.51;4.54;43.7;21.4;-11.03;-8.88;-194.06;-112.41;8.64;-43.83;23.39;-12.61;-27.84;13.63;76.12;3.59;7.97;-199.45;-27.34;161.31;-5.08;-0.15;-0.08
0;111.63;72.15;3.94;171.81;110.02;-9.73;-10.51;-179.61;-107.91;-0.18;335.89;18.45;-10.26;207.5;-13;52.48;3.03;5.69;-143.45;-19.39;76.16;-3.39;6.18;-4.53
0;-110.38;-62.93;4.45;45.88;20.1;-9.89;-10.32;-206.42;-113.06;9.03;-51.62;20.62;-12.88;-34.42;16.39;73.86;4.36;8.01;-148.09;-27.24;144.37;-7.12;-0.67;0.25
0;111.98;64.76;4.84;174.41;108.4;-6.73;-9.62;-195.36;-104.84;3.59;314.64;17.13;-10.07;213.63;-18.8;54.26;3.35;5.55;-141.73;-22.28;60.43;-2.77;7.3;-4.62
0;-112.56;-61.73;4.27;43.03;20.56;-11.86;-8.16;-216.77;-128.13;6.85;-55.83;14.55;-12.65;-41.82;25.11;45.17;3.76;6.34;-66.2;-28.43;90.12;-6.55;-1.01;0.36
0;106.97;73.32;6.94;197.03;130.81;-8.03;-14.91;-206.38;-131.04;3.8;400.9;24.51;-10.08;261.83;-7.38;59.63;3.92;7;-127.04;-28.06;120.36;-0.88;7.02;-5.1
0;-105.67;-58.19;4.43;43.85;17.54;-11.21;-10.5;-190.18;-108.8;11.18;-39.84;18.94;-12.05;-23.17;13.87;78.79;4.7;7.43;-195.42;-30.77;185.13;-2.28;-0.62;0.29
0;102.65;52.62;6.59;215.28;125.88;-6.37;-11.82;-199.02;-126.89;2.86;396.46;21.44;-10.82;247.19;-21.11;67.12;3.64;6.64;-158.73;-22.81;96.91;-1.71;6.72;-4.04
0;-105.68;-61.95;2.82;49.8;21.71;-11.31;-11.91;-206.22;-122.54;6.44;-35.37;12.68;-11.78;-29.59;18.99;46.02;4.16;6.12;-78.72;-21.42;102.84;-7.38;-0.28;0.09
0;115.82;64.9;5.86;202.57;120.97;-8.95;-11.55;-198;-116.04;1.21;381.99;22.25;-10.63;251.78;-16.62;53.79;3.29;6.62;-124.33;-23.29;77.67;-2.75;6.67;-4.61
0;-114.72;-63.39;4.23;46.09;21.71;-10.34;-8.03;-205.79;-112.19;9.1;-66.4;17.6;-12.86;-35.94;6.76;71;3.92;7.04;-125.16;-24.71;147.1;-4.66;-0.13;-0.05
0;136.13;72.4;4.04;194.03;118.24;-4.63;-12.28;-183.03;-122.87;1.71;375.59;22.86;-9.97;238.35;-9.68;52.23;3.93;6.2;-109.28;-20.62;79.9;-3.01;7.44;-4.65
0;-104.19;-64.25;4.3;49.39;20.21;-10.18;-10.07;-208.55;-121.64;11.96;-54.34;17.83;-12.66;-41.59;18.7;71.7;4.8;7.06;-162.31;-26.64;141.11;-4.74;-0.17;0.14
0;103.08;72.05;4.49;190.25;123.77;-6.81;-12.29;-195.25;-122.18;0.08;357.97;23.52;-10.25;238.01;-12.9;50.93;3.34;6.94;-93.85;-20.98;113.34;-3.03;6.62;-5.24
0;-110.18;-64.43;4.35;51.6;23.09;-8.69;-8.23;-201.26;-116.67;9.42;-38.31;20.99;-13.17;-33.96;12.17;72.5;3.92;7.25;-178.38;-26.45;145.23;-5.94;-0.65;0.21
0;124.62;66.69;3.7;182.73;112.69;-3.12;-13.48;-177.12;-113.76;-0.78;357.78;23.28;-9.77;227.03;-11.79;49.34;3.57;5.74;-123.55;-19.38;56.32;-3.74;7.02;-4.8
0;-104.73;-66.11;3.22;49.04;19.82;-9.42;-10.12;-205.5;-124.43;11.14;-43.17;18.14;-12.75;-40.79;19.33;74.85;4.88;7.4;-163.78;-22.92;167.09;-5.4;-0.08;0.44
0;102;56.89;5.39;203.42;123.23;-4.9;-11.62;-194.17;-130.73;2.92;390.59;21.45;-10.1;232.21;-10.76;45.76;3.06;6.58;-127.06;-19.4;103.91;-3.12;6.42;-4.6
0;-108.04;-56.68;3.92;47.67;22.9;-10.69;-8.07;-213.69;-123.42;9.15;-49.07;16.23;-12.78;-25.97;12.94;59.3;3.61;6.97;-129.28;-23.14;132.44;-6.78;-0.6;0.25
0;122.64;75.23;4.86;193.67;123.41;-8.48;-13.23;-196.3;-117.45;-0.41;385.03;18.3;-10.13;260.92;-8.45;68.74;4.14;6.51;-142.1;-22.24;118.3;-3.94;7.2;-4.91
0;-112.42;-62.19;3.76;49.69;21.46;-9.92;-8.87;-214.71;-122.92;12.51;-52.75;13.4;-12.86;-35.65;12.42;58.2;4.43;6.29;-97.49;-23.4;118.23;-8.11;-0.49;0.44
0;123.49;61.14;4.68;197.9;112.99;-5.59;-13.14;-201.77;-126.35;4.12;383.11;25.37;-10.37;213.34;-16.45;61.46;3.7;6.65;-172.48;-21.41;40.35;-4.69;7.24;-4.78
0;-105.88;-63.26;2.91;52.26;25.42;-10.06;-9.91;-214.91;-130.71;12.78;-49.82;11.66;-12.19;-35.81;17.12;62.33;4.99;6.19;-120.71;-22.79;140.19;-8.34;-0.42;0.33
0;116.11;63.36;7;214.84;116.82;-6.3;-12.27;-205.31;-124.22;5.65;413.99;24.88;-10.07;237.02;-5.61;54.61;3.48;6.79;-130.34;-26.9;94.34;-2.59;6.8;-4.44
0;-117.19;-58.42;4.13;51.49;19.6;-10.79;-11.82;-209.91;-104.91;10.32;-45.1;22.69;-12.61;-22.28;7.35;85.06;5.05;8.56;-224.68;-26.8;167.18;-6.31;-0.77;0.11
0;124.16;67.93;5.84;200.64;103.42;-8.24;-12.92;-193.43;-120.43;1.79;372.42;24.2;-9.82;216.75;-29.96;93.17;3.61;7.09;-241.47;-22.59;81.36;-2.48;8.49;-5.05
0;-112.51;-63.98;3.9;51.82;20.19;-8.86;-9.29;-207.94;-115.34;5.08;-40.9;12.06;-12.18;-33.8;23.1;37.28;3.32;4.74;-53.93;-24.69;69.03;-6.24;-0.96;0.1
1;106.37;54.33;7.07;208.51;102.28;-8.91;-10.32;-219.71;-132.72;3.34;404.84;15.45;-7.75;217.3;-25.02;63.04;2.95;5.99;-183.92;-20.23;61.21;1.39;5.91;-4.34
1;-101.81;-46.92;3.36;53.03;21.23;-19.69;-11.54;-221.03;-102.77;16.36;-28.88;16.28;-12.49;-7.69;21.73;73.46;5.19;8.08;-208.61;-23.26;166.85;-8.28;-0.95;0.02
1;114.98;59.13;6.55;208.48;100.42;-10.33;-10.17;-234.39;-135.77;3.04;414.6;13.48;-8.57;193.12;-13.71;66.64;2.66;5.53;-181.7;-21.28;120.08;-0.6;5.46;-4.18
1;-101.9;-46.83;3.11;47.69;20.71;-17.37;-12.29;-207.54;-112.08;14.76;-48.52;25.3;-12.19;-18.76;16.97;82.81;4.8;8.2;-268.5;-23.05;137.12;-8.33;-0.08;-0.47
1;110.74;63.21;5.3;201.55;104.75;-9.04;-9.44;-217.51;-140.92;1.14;384.34;11.7;-9.3;203.21;-15.93;56.76;2.31;4.74;-175.79;-18.06;90.66;-1.91;4.93;-4.01
1;-105.48;-52.37;2.95;50.82;21.08;-14.85;-10.03;-230.82;-115.23;11.52;-60.15;14.66;-12.57;-22.52;17.16;78.2;4.49;7.33;-190.22;-19.65;140.97;-8.59;-0.47;-0.04
1;104.58;60.61;6.58;191.62;103.96;-8.49;-10.21;-216.16;-107.96;8.04;377.04;18.6;-7.96;215.97;-26.27;68.55;3.44;5.7;-170.35;-21.19;156.53;0.42;6.23;-4.52
1;-104.53;-49.61;3.56;49.06;20.65;-10.56;-12.98;-211.84;-106.73;15.92;-54.72;14.43;-12.4;-13.12;29.99;63.59;5.46;6.19;-156.8;-25.69;120.56;-6.3;-0.49;-0.5
1;95;61.37;6.63;192.46;104.06;-10.17;-11.6;-207.95;-131.51;15.7;365.14;16.36;-8.88;208.61;-28.31;61.1;4.43;5.63;-191.96;-25.6;91.54;-0.92;5.99;-4.32
1;-103.72;-55.77;4.29;41.58;31.08;-18.86;-17.54;-187.67;-133.48;17.07;-55.46;31.19;-12.14;-25.1;30.16;107.74;6;9.67;-332.4;-22.63;248.84;-0.78;0.98;-1.9
1;98.26;72.72;5.32;177.79;95.2;-7.58;-10.72;-186.08;-119.9;9.19;340.44;16.91;-8.08;197.62;-30.59;60.41;3.66;5.77;-172.22;-20.85;103.19;-0.65;6.71;-4.87
1;-96.71;-63.99;3.66;41.93;21.46;-12.86;-18.32;-194.98;-104.77;8.22;-55.62;23.76;-12.26;-32.41;31.64;84.77;5.25;8.05;-218.55;-20.22;186.97;-3.03;0.17;-1.44
1;106.35;65.55;5.42;188.83;100.94;-11.31;-10.38;-182.76;-139.28;7.72;367.94;17.71;-8.73;203.09;-7.82;52;3.28;5.69;-123.59;-19.63;88.47;-0.92;6.3;-4.67
1;-104.07;-52.59;3.72;54.1;23;-20.79;-15.78;-216.43;-120.31;20.2;-52.3;20.31;-12.76;-30.46;22.68;100.72;6.37;8.73;-311.98;-23.39;188.74;-7.84;-1.08;-0.59
1;125.14;73.17;6.56;209.58;105.69;-4.82;-10.08;-236.98;-150.82;-0.85;395.11;13.25;-8.44;223.58;-13.84;68.32;2.65;4.65;-200.81;-21.59;80.77;0.24;5.87;-4.42
1;-110.48;-56.17;3.87;55.83;22.54;-13.56;-11.23;-230.91;-109.15;14.29;-56.74;15.01;-12.86;-27.48;27.08;80.45;4.99;7.75;-190.89;-23.48;147.96;-9.16;-0.87;-0.43
1;100.73;71.56;7.89;193.89;106.01;-9.79;-13.35;-213.59;-127.51;15.66;377.37;21.13;-8.26;236.44;-22.2;74.61;4.82;6.64;-201.96;-27.94;162.77;1.76;6.08;-5.04
1;-106.05;-52.15;4.44;50.15;28.77;-12.82;-15.8;-208.53;-131.84;19.47;-51.4;24.85;-12.06;-18.63;33.36;82.31;6.54;8.01;-246.42;-27.72;156.53;-4.25;0.27;-0.94
1;105.3;68.45;6.26;209.45;110.43;-8.14;-10.22;-224.01;-166.01;2.47;395.27;16.71;-9.28;213.24;-22.08;69.96;2.85;6.7;-202.23;-21.56;90.64;-1.33;5.61;-4.57
1;-105.16;-56.72;3.98;53.67;21.21;-16.67;-11.97;-215.06;-104.88;16.47;-47.44;17.63;-12.86;-15.47;30.77;100.52;5.3;8.38;-265.84;-25.62;200.81;-7.67;-0.83;-0.22
1;116.21;64.35;7;207.53;101.74;-10.66;-11.43;-233.65;-154.81;8.87;407.9;15.58;-8.48;206.67;-20.24;57.48;3.37;5.98;-170.18;-23.17;75.64;0.42;5.51;-4.16
1;-108.09;-55.38;4.1;55.89;26.45;-17.91;-17.06;-236.47;-122.41;19.55;-48.75;21.91;-12.51;-8.13;22.7;101.07;6.81;8.81;-288.57;-27.92;193.84;-7.09;-0.5;-0.36
1;95.88;63.02;8.9;203.31;118.19;-9.32;-12.03;-232.78;-114.83;17.42;395.65;16.19;-8.38;245.31;-32.69;54.75;4.55;5.89;-199.34;-28.72;45.69;3.12;5.78;-4.15
1;-106.29;-54.43;4.04;51.01;27.24;-12.62;-14.72;-214.46;-128.48;18.5;-47.64;22.7;-12.22;-15.41;30.09;81.74;5.63;7.95;-227.9;-26.94;170.79;-3.89;-0.1;-0.73
1;113.52;69.39;6.62;200.01;101.49;-9.76;-10.96;-215.6;-140.28;-0.45;395.44;19.24;-8.05;218.68;-26.81;79.45;2.98;6.84;-229.67;-21.03;106.61;1.09;6.2;-4.98
1;-102.83;-48.93;3.59;56.04;22.66;-19.92;-9.79;-222.66;-104.1;12.21;-20.08;15.31;-12.69;-11.56;27.98;83.26;4.42;8.01;-186.89;-22.34;151.32;-6.84;-1.09;0.03
1;105.38;67.98;8.03;200.5;105.51;-12.4;-12.91;-213.49;-131.66;13.85;392.09;18.91;-8.44;231.23;-27.61;74.41;4.16;6.95;-215.97;-26.17;132.37;1.9;6.11;-4.59
1;-108.65;-55.02;4.15;52.02;24.08;-20.76;-11.76;-213.49;-128.47;20.92;-49.52;16.92;-12.61;-6.55;28.04;73.02;5.6;7.55;-179.19;-28.6;148.76;-7.59;-0.85;-0.38
1;116.69;70.69;7.27;203.73;109.02;-8.96;-10.86;-217.63;-150.59;13.65;401.94;14.37;-9.06;216.28;-23.95;60.13;3.78;4.95;-176.22;-27.09;93.29;-0.55;5.71;-4.12
1;-112.3;-54.31;4.31;55.6;27.74;-16.17;-15.95;-228.26;-137.49;20.49;-56.81;22.73;-12.8;-12.5;27.97;89.95;5.75;8.45;-261.39;-27.12;181.16;-6.69;-0.84;-0.67
1;134.13;69.66;6.51;210.01;103.84;-6.24;-11.52;-235.02;-145.31;-1.76;418.12;15.86;-8.31;199.16;-29.04;73.93;2.72;4.83;-220.63;-22.16;56;0.13;6.5;-4.74
1;-106.14;-57.61;4.15;53.34;23.4;-14.15;-9.69;-225.66;-110.85;12.65;-48.59;13.91;-12.99;-19.24;22.25;70.03;4.31;6.87;-140.26;-23.97;124.4;-8.12;-0.77;-0.21
1;124.91;81.51;6.43;203.93;113.63;-7.64;-12.91;-218.43;-151.46;0.94;407.99;15.95;-8.56;222.48;-21.46;68.72;2.86;4.88;-224.22;-19.76;68.4;0.65;5.55;-4.69
1;-106.02;-59.43;4.48;50.35;25.91;-19.6;-10.35;-207.52;-120.29;14.9;-49.85;17.87;-12.94;-25.42;24.02;85.88;4.67;7.87;-214.37;-26.12;157.72;-5.73;-0.67;-0.28
1;124.82;74.47;6.95;205.38;111.02;-6.36;-11.1;-228.69;-146.06;3.42;409.21;17.3;-8.8;235.53;-24.5;71.68;2.74;5.1;-218.37;-21.97;79.89;-0.57;6.25;-4.62
1;-104.16;-54.28;4.1;52.44;30.39;-15.17;-12.81;-210.69;-137.1;19.74;-42.08;23.6;-12.62;-8.65;24.7;75.57;5.61;7.77;-189.3;-26.56;153.86;-8.26;-0.19;-0.22
1;119.69;68.64;7.46;210.11;104.2;-9.96;-10.3;-224.05;-147.76;9.73;408.04;15.84;-9.15;203.6;-24.75;70.86;3.21;5.41;-219.82;-27.39;56.33;1.56;5.1;-3.9
1;-107.7;-59.12;3.95;50.87;21.39;-15.77;-17.53;-222.31;-122.71;17.08;-44.58;23.6;-12.41;-18.16;27.45;99.98;5.59;8.76;-282.97;-27.85;205.41;-6.78;-0.73;-0.39
1;121.21;71.11;7.43;212.99;106.73;-15.51;-11.76;-233.88;-164.79;4.23;414.92;15.96;-8.78;212.7;-18.21;84.76;3.23;6.45;-243.17;-24.06;108.2;2.4;5.4;-4.46
1;-108.89;-57.34;4.35;56.93;25.74;-18.88;-13.19;-236.51;-122.44;13.86;-40.44;26.39;-12.99;-15.49;22.65;96.96;5.14;9.16;-290;-28.9;177.52;-8.77;-0.84;-0.54
1;119.29;71.55;8.08;197.35;107.37;-21.42;-10.49;-206.01;-124.28;18.48;412.98;21.28;-7.8;247.11;-19.31;65.05;4.61;7.09;-180.8;-29.96;91.4;1.56;6.25;-4.33
1;-104.06;-58.91;4.14;48.15;20.34;-24.16;-14.61;-212.49;-120.93;22.35;-52.64;22.45;-12.48;-32;22.07;104.5;6.07;9.16;-299.59;-27.98;207.29;-6.17;-0.26;-0.76
1;118.27;63.6;7.56;213.41;113.08;-16.67;-7.66;-243.44;-156.21;5.33;436.47;12.91;-8.3;236.04;-25.38;52.25;2.38;5.94;-125.61;-23.73;80.66;0.07;5.51;-4.08
1;-106.79;-55.58;3.56;53.31;20.56;-16.62;-11.72;-226.02;-115.51;11.71;-41.02;16.66;-12.48;-24.94;20.54;82.16;4.23;7.76;-201.06;-23.79;159.61;-8.57;-0.24;-0.47
1;128.67;67.03;6.92;216.12;103.18;-5.51;-10.11;-228.25;-147.29;-1.47;410.69;14.44;-8.3;200.5;-12.25;67.79;2.45;4.44;-186.85;-21.75;117.06;0.73;5.59;-4.18
1;-103.94;-54.69;4.51;60.88;31.99;-15.68;-9.83;-227.58;-123.12;14.15;-37.61;18.46;-13.05;-12.83;22.38;87.63;4.57;7.59;-228.65;-24.29;186.43;-8.47;-0.49;-0.22
1;120.9;80.66;8.11;215.66;110.56;-11.8;-14.7;-233.19;-168.13;2.9;428.41;18.07;-7.94;217.99;-16.54;93.08;3.32;6.25;-286.99;-22.15;121.17;2.98;5.3;-5.24
1;-105.06;-56.4;4.34;55.58;25.49;-17.64;-13.13;-218.56;-124.08;15.32;-44.18;19.79;-12.91;-19.59;26.94;108.23;5.48;9.04;-293.8;-24.48;197.3;-7.07;-0.68;-0.73
1;124.27;77.92;6.71;217.83;122.81;-5.83;-9.55;-237.57;-153.53;-0.64;431.39;12.99;-8.99;223.7;-26.12;63.59;2.2;4.64;-136.03;-22.02;91.32;0.06;5.4;-4.68
1;-108.55;-51.55;3.94;55.58;22.93;-17.66;-10.31;-228.87;-109.64;9.76;-46.17;17.82;-12.88;-13.95;23.44;83.36;4.12;7.92;-160.6;-21.45;143.35;-8.86;-0.5;-0.48
1;139.1;70.32;7.27;236.8;110.4;-8.41;-9.07;-252.21;-166.91;0.8;458.92;14.58;-8.26;209.41;-17.05;92.22;2.34;5.2;-219.59;-23.2;124.18;-0.11;6.02;-4.35
1;-105.55;-52.78;3.94;62.1;32.7;-17.08;-11.48;-224.02;-123.09;11.2;-38.55;16.49;-12.53;-9;18.91;73.85;4.53;7.35;-162.68;-21.35;131.47;-7.69;-0.02;-0.89
1;121;77.33;7.14;214.29;115.84;-7.68;-12.63;-253.98;-166.19;3.23;421.11;16.09;-8.01;242.45;-18.13;69.75;2.88;5.02;-207.82;-20.63;100.59;0.87;5.75;-4.85
1;-106.65;-57.67;4.25;56.03;28.41;-16.82;-12.62;-212.61;-124.45;18.91;-43.5;18.74;-12.89;-15.39;26.54;101.62;5.61;8.49;-260.39;-25.33;220.5;-8.4;-0.69;-0.58
1;121.46;76.25;6.73;217.99;119.29;-7.68;-10.76;-235.56;-166.78;0.54;431.79;13.7;-8.4;239.44;-34.47;66.37;2.43;4.51;-195.48;-20.62;54.14;-0.04;5.25;-4.95
1;-101.3;-61.68;3.68;56.67;28.3;-14.37;-10.98;-212.45;-134.81;13.33;-37.11;16.59;-12.7;-22.65;26.87;77.57;4.48;7.09;-163.39;-21.62;173.74;-8.72;0.21;-0.58
1;120.87;71.65;7.01;211.5;115.49;-4.12;-9.09;-233.14;-146.34;4.74;419.49;12.65;-8.86;219.4;-5.52;58.14;2.29;3.75;-146.56;-20.9;134.45;-0.27;5.56;-3.89
1;-111.14;-44.62;3.83;51.57;24.79;-17.2;-13.9;-225.12;-110.98;15.4;-50.12;19.03;-12.64;-3.55;23.2;79.51;5.12;7.78;-168.97;-24.02;176.93;-7.46;-0.42;-0.81
1;127.69;68.1;7.36;221.1;100.75;-10.4;-10.76;-212.06;-133.39;12.81;432.31;17.76;-9.38;198.33;-24.78;81.14;3.6;5.61;-213.04;-28.45;55.18;-0.21;5.77;-4.04
1;-113.75;-57.77;5.14;58.41;30.37;-19.54;-17.26;-229.9;-140.47;20.85;-41.46;24.65;-12.75;-2.85;20.4;108.3;6.43;9.67;-320.25;-29.98;250.8;-0.84;-0.75;-0.59
1;144.74;68.97;6.8;220.45;100.91;-4.68;-10.91;-233.1;-159.05;-1.65;430.59;16.17;-8.53;211.49;-8.71;82.71;2.51;5.03;-234.56;-22.72;90.82;-0.1;5.89;-4.26
1;-111.16;-51.36;4.3;58.01;26.86;-15.62;-15.47;-226.98;-125.36;16.31;-38.36;22.48;-12.92;-7.14;13.68;106.53;5.64;9.21;-292.38;-26.98;227.73;-8.46;-0.77;-0.35
1;134.79;64.84;6.79;217.48;105.23;-10.36;-9.6;-244.43;-158.98;1.42;415.84;14.04;-8.6;223.81;-19.43;80.06;2.53;5.27;-208.91;-22.48;117.89;0.34;6.03;-4.15
1;-114.08;-56.47;4.8;57.66;26.39;-16.47;-14.68;-223.29;-128.94;17.74;-47.42;23.59;-12.88;-15.34;15.92;90.65;5.52;8.91;-262.38;-29.35;162.4;-5.2;-0.44;-0.49
1;128.77;70.12;5.74;200.71;102.05;-5.52;-9.34;-207.1;-132.88;6.97;384.87;14.94;-8.7;203.93;-14.48;67.94;3.11;4.4;-173.26;-22.4;69.79;-1.43;6.79;-4.51
1;-111.34;-53.4;4.9;60.17;27.03;-20.14;-18.61;-238.5;-120.65;20.46;-37.09;30.97;-13.15;-8.03;17.15;109.17;6.59;10.01;-360.3;-28.71;222.63;-5.29;-1.03;-0.39
1;125.84;73.85;8.86;219.81;124.92;-18.01;-10.24;-238.84;-152.81;10.82;446.39;16.7;-7.57;268.53;-19.54;70.54;3.6;6.06;-191.69;-25.2;108.04;2.45;5.89;-4.33
1;-108.33;-55.17;3.93;56.65;23.32;-19.22;-15.49;-224.43;-125.47;19.98;-44.28;20.16;-12.61;-17.01;20;94.6;6.03;8.45;-251.21;-27.01;193.41;-7.14;-0.64;-0.17
1;120.86;72.69;6.44;207.58;110.45;-7.34;-11.58;-212.09;-148.27;-0.43;381.79;14.17;-8.84;234.23;-22.71;70.75;2.96;5.22;-205.06;-21.11;99.11;0.11;5.95;-4.61
1;-110.64;-55.21;3.57;59.27;22.05;-16.96;-12.05;-246.22;-112.38;14.91;-42.4;20.35;-12.8;-13.1;28.63;69.99;4.89;7.96;-165.56;-22.73;119.23;-7.89;-1.14;0.31
1;115.09;68.78;9.13;225.92;116.81;-10.82;-11.11;-247.32;-162.38;5.79;435.38;22.5;-7.6;229.2;-16.75;81.03;3.65;7.08;-183.95;-26.8;122.04;3.41;5.56;-4.64
1;-109.45;-51.72;4.11;54.83;25.56;-21.96;-16;-225.55;-117.64;14.9;-51.82;20.9;-12.74;-17.52;24.51;118.94;6.02;9.84;-320.91;-26.56;208.88;-8.3;-0.91;-0.69
1;114.17;59.52;6.5;199.92;109.02;-10.12;-12.11;-219.77;-136.21;7.85;384.29;17.39;-8.18;220.6;-34.06;57.46;3.56;6.12;-150.2;-21.07;86.74;0.63;6.44;-4.74
1;-104.25;-52.17;4.74;61.33;27.77;-24.24;-17.66;-235.62;-130.09;20.47;-37.01;23.91;-13.08;-3.32;24.94;98.31;6.74;9.94;-319.11;-27.97;201.9;-4.51;-1.38;-0.31
1;116.84;68.42;7.54;202.5;100.12;-9.82;-12.43;-225.94;-125.9;10.99;381.01;17.2;-7.72;214.35;-19.97;80.96;4.03;6.53;-238.44;-23.68;81.81;1.88;6.53;-4.84
1;-105.34;-51.5;4.74;60.33;27.2;-20.58;-15.36;-235.44;-131.82;21.69;-38.62;21.75;-12.98;-17.22;29.8;90.91;6.14;8.97;-264.98;-28.59;202.69;-5.89;-1.15;-0.41
1;111.68;71.54;7.61;209.76;104.67;-9.27;-12.27;-221.81;-139.08;2.59;415.97;19.69;-7.28;217.48;-19.47;74.64;3.05;6.45;-216.21;-21.34;136.13;3.15;6.63;-5.23
1;-108.93;-49.25;4.74;64.17;26.93;-25.72;-12.47;-241.15;-122.31;20.72;-47.71;21.97;-13.23;-4.48;20.34;77.41;6.08;9.38;-205.4;-26.47;124.67;-6.4;-1.6;-0.39
1;124.43;78.9;8.38;199.39;97.56;-6.86;-13.13;-213.18;-110.72;12.93;394.6;20.51;-7.43;223.61;-24.5;83.55;4.38;6.66;-219.8;-25.26;136.51;3.84;7.42;-5.13
1;-110.16;-53.46;4.62;56.97;23.27;-14.55;-13.96;-234;-119.36;17.38;-49.08;18.19;-12.78;-13.6;36.95;66.15;5.51;7.47;-127.42;-26.62;132.88;-5.41;-1.37;-0.42
1;115.66;78.98;7.88;217.51;115.96;-10.34;-12.39;-242.13;-165.14;-1.39;413.04;16.65;-8.11;224.14;-27.38;72.29;2.96;6.46;-228.27;-23.04;96.19;0.9;5.89;-5.18
1;-108.3;-55.63;4.28;58.24;23.95;-15.45;-8.5;-228.83;-122.15;12.22;-47.41;15.91;-13.04;-15.79;27.35;72.46;4.3;7.43;-132.41;-24.86;131.7;-8.7;-0.76;-0.31
1;121.4;68.8;7.5;197.29;103.78;-8.09;-11.12;-211.76;-124.42;10.52;386.31;19.88;-8.21;216.14;-31.29;62.71;3.77;5.96;-157.77;-24.92;91.62;0.94;6.85;-4.66
1;-108.86;-52.23;4.46;59.44;26.32;-19.22;-12.93;-233.54;-133.09;21.7;-41.24;25.06;-13;-10.07;29.03;78.23;6.11;8.2;-202.84;-29.07;133.67;-7.52;-1.27;-0.2
1;113.66;70.44;8.34;196.54;97.88;-8.84;-11.28;-207.82;-113.03;18.78;408;21.44;-7.71;224.07;-23.24;71.18;4.8;6.83;-188.03;-28.39;139.1;2.86;6.48;-4.25
1;-107.41;-50.33;4.29;60.12;27.51;-17.86;-13.49;-238.04;-122.86;19.47;-41.06;17.45;-12.58;-2.74;28.82;73.94;5.63;7.65;-145.98;-26.65;143;-4.27;-1.26;-0.57
1;107.49;71.38;8.35;197.6;106.72;-11.06;-10.8;-221.77;-113.72;11.57;387.06;21.05;-7.52;218.43;-24.03;72.66;3.77;7;-142.11;-26.61;184.72;3;6.49;-4.65
1;-104.92;-49.58;5.1;59.83;30.85;-18.04;-14.53;-229.64;-131.27;18.08;-37;24.57;-12.76;-1.29;22.36;77.92;5.36;8.55;-232.03;-30.89;121.85;-3.24;-0.58;-0.86
1;117.92;69;8.14;205.21;107.04;-15.74;-9.72;-205.59;-133.31;16.41;417.44;16.61;-8.26;224.47;-28.72;61.82;4.15;5.97;-165.71;-26.63;67.04;0.61;6.03;-4.25
1;-106.39;-53.71;4.36;59.44;32.26;-19.64;-16.9;-224.62;-144.62;18.08;-42.1;24.89;-12.58;-9.74;31.06;86.02;5.54;8.22;-262.17;-25.31;142.8;-4.67;-0.46;-1.18
1;121.94;61.76;7.18;216.49;109.44;-6.7;-10.8;-245.42;-162.23;1.46;421.19;15.19;-7.9;221.24;-23.15;56.57;2.78;5.49;-158.7;-20.3;51.76;0.44;5.95;-4.4
1;-107.69;-53.63;4.29;58.21;24.42;-16.73;-11.5;-227.89;-116.16;16.04;-50.29;14.71;-13.14;-20.1;22.83;92.26;5.02;7.98;-225.56;-23.41;172.22;-8.58;-0.63;-0.5
1;118.82;71.16;8.23;206.49;106.55;-14.36;-11.24;-226.63;-144.11;12.32;401.42;18.72;-7.79;245.66;-24.46;69.18;4;6.32;-177.78;-25.11;94.37;2.31;6.12;-4.65
1;-109.7;-53.92;3.9;57.14;29.21;-19.46;-11.7;-224.03;-140.74;21.86;-32.97;24.45;-12.79;-10.67;26.75;80.7;5.72;8.49;-211.6;-26.76;164.98;-8.28;-0.75;-0.42
1;127.38;73.49;7.78;212.49;106.84;-5.36;-11.22;-251;-157.86;9.5;426.21;14.85;-7.79;210.65;-16.76;58.71;3.43;4.41;-155.2;-24.12;54.87;1.25;6.3;-4.49
1;-114.28;-54.48;5.03;62.75;32.56;-21.38;-18.28;-235.25;-150.16;22.61;-43.1;26.91;-13.21;-9.62;26.14;107.79;6.81;9.9;-310.87;-31.76;215.8;-6.71;-1.06;-0.84
1;130.5;88.24;7.96;213.33;113.93;-5.76;-12.6;-233.79;-164.68;10.19;419.03;18.88;-8.01;224.24;-15.38;90.08;3.96;5.76;-221.83;-27.43;131.7;2.12;6.97;-5.48
1;-113.75;-64.79;5.93;65.16;31.73;-22.5;-17.74;-247.35;-148.98;22.36;-42.98;30.44;-12.88;-25.5;18.85;109.24;7.21;11.03;-345.88;-34.39;209.83;-0.18;-0.51;-0.59
1;112.6;76.63;8.92;220.22;115.82;-28;-12.42;-251.17;-174.36;23.58;400.4;25.07;-9.39;214.94;-1.15;93.34;6.24;8.97;-176.04;-36.76;243.12;2.61;6.08;-4.65
1;-111.69;-73.42;8.07;52.42;43.99;-36.72;-23.71;-215.12;-183.69;22.47;-55.76;39.33;-12.28;-27.19;5.03;167.43;8.54;15.57;-528.53;-32.03;312.76;9.54;1.29;-2.61
1;124.3;77.87;6.42;206.83;125.44;-8.51;-10.66;-198.56;-151.19;1.51;409.09;21.92;-8.08;205.59;-0.71;71.53;3.03;6.96;-110.05;-17.02;147;1.95;6.76;-5.48
1;-105.09;-51.32;4.56;60.16;27.39;-15.03;-15.37;-227.81;-129.54;18.51;-41.4;29.97;-13.08;-18.29;24.93;107.1;5.89;9.82;-298.05;-25.19;214.07;-5.2;-0.84;-0.85
1;125.31;66.92;7.72;212.55;103.89;-21.17;-12.43;-251.73;-168.64;8.86;391.97;25.05;-8.29;229.09;-19.81;73.92;3.95;7.84;-170.73;-25.58;164.56;1.48;6.41;-4.92
1;-113.36;-49.35;4.28;58.24;21.43;-26.33;-12.57;-230.78;-117.66;18.75;-26.68;23.46;-13.17;-24.44;28.92;96.66;5.45;9.38;-250.74;-26.82;171.7;-8.72;-1.3;-0.45
1;130.88;79.61;8.08;218.84;106.44;-7.72;-12.84;-233.94;-152.15;10.85;424.64;17.07;-8.34;221.82;-13.07;73.28;3.94;5.14;-180.37;-25.45;115.13;2.31;6.58;-4.84
1;-117.64;-52.04;4.29;59.16;33.3;-12.69;-15.16;-222.26;-153.08;23.28;-45;29.07;-12.92;-2.84;26.67;100.82;6.82;9.2;-241.86;-28.77;197.74;-7.61;-0.7;-0.47
1;125.17;73.13;7.75;219.75;102.88;-5.28;-11.57;-219.48;-139.92;24.73;427.55;15.25;-8.65;189.25;-14.25;82.07;5.86;5;-221.22;-31.57;100.84;-0.41;5.95;-4
1;-116.33;-56.72;4.92;59.07;33.97;-14.87;-20.28;-220.2;-150.43;22.35;-37.06;28.95;-12.29;0.67;16.47;109.26;6.97;9.89;-318.8;-25.72;247.69;-0.38;0.14;-1.44
1;129.22;78.41;7.36;220.72;110.89;-8.8;-10.81;-247.1;-162.65;4.59;418.31;18.03;-8.36;202.82;-14.73;75.77;3.24;6.07;-196.25;-25.04;107.26;0.63;6.6;-4.69
1;-110.26;-52.3;4.56;63.81;30.08;-17.31;-17.75;-248.28;-133.66;19.46;-42.17;30.39;-12.95;-14.98;14.93;111.51;6.44;10.2;-351.47;-29.53;234.07;-6.81;-1;-0.6
1;103.87;59.49;5.64;202.07;106.46;-3.38;-10.34;-214.63;-138.12;2.55;381.83;18.36;-7.91;206.7;-11.4;65.44;3.16;5.21;-143.44;-22.44;84.2;-1.75;7.88;-4.47
1;-112.21;-60.72;5.51;50.57;38.52;-17.67;-12.16;-202.92;-142.05;10.21;-51.5;26.14;-12.95;-14.23;23.38;69.25;5.4;9.7;-212.94;-28.91;107.11;1.61;1.03;-1.46
1;127.01;81.02;5.62;205.22;111.43;-10.65;-8.74;-211.46;-144.39;-0.9;401.39;17.66;-8.47;192.78;-9.55;77.14;2.83;6.71;-158.66;-18.11;131.1;-0.57;6.5;-5.18
1;-106.72;-46.32;4.42;57.79;26.13;-17;-11.94;-234.7;-113.38;13.44;-45.71;24.01;-12.96;-20.56;23.53;92.71;4.77;8.7;-259.19;-25.35;156.23;-5.87;-0.72;-0.75
1;124.48;65.38;7.59;213.07;109.24;-7.34;-12.21;-216.13;-147.99;11.19;410.16;18.7;-8.88;231.42;-30.51;79.09;3.88;5.4;-197.34;-26.42;77.48;-0.52;6.57;-4.46
1;-111.34;-52.89;4.32;57.64;26.44;-19.78;-15.78;-240.65;-133.7;17.31;-42.8;24.75;-12.83;-9.66;27.79;80.12;5.27;9.15;-216.51;-26.3;153.54;-8.09;-0.91;-0.77
1;116.11;70.74;7.93;203.92;111.59;-6.26;-10.39;-224.74;-106.29;16.78;380.02;18.87;-8.66;224.18;-23.52;64.85;4.69;5.75;-164.15;-31.32;82.46;1.77;7.39;-4.75
1;-109.82;-50.95;5.49;62.81;30.97;-22.7;-17.43;-246.41;-133.73;18.5;-39.34;32.16;-12.98;-8.88;27.58;99.13;6.07;10.68;-296.01;-31.96;176.87;-3.43;-1;-0.86
1;109.94;64.61;9.01;204.18;110.61;-13.91;-12.45;-230.16;-104.33;16.2;380.19;19.15;-9;236.83;-33.77;68.53;5.71;7.35;-199.08;-33.26;73.29;1.69;6.88;-4.23
1;-112.63;-52.87;5.31;64.66;30.86;-18.71;-16.81;-253.14;-135.42;6.22;-49.12;30.32;-12.67;-17.86;32.32;86.61;5.3;10.22;-229.37;-25.04;205.08;-0.91;-0.52;-1.47
1;122.82;78.65;8.88;211.55;119.42;-12.1;-10.39;-223.41;-144.77;17.32;402.82;20.57;-7.9;228.64;-28.59;71.58;4.4;7.44;-174.68;-34.17;120.94;3.33;6.71;-4.51
1;-107.49;-60.04;6.23;67.59;39.54;-25.05;-17.32;-242.53;-171.71;23.7;-36.7;30.39;-12.96;-11.14;29.71;112.21;6.51;11.22;-332.94;-35.38;228.03;4.04;-0.56;-1.33
1;138.46;80.33;7.97;214.66;116.49;-7.27;-12.35;-224.73;-154.04;-1.56;426.72;16.34;-7.86;250.49;-25.37;76.55;3.26;5.31;-208.19;-24.44;124.98;2.1;7.19;-5.31
1;-110.46;-61.58;4.46;57.01;21.03;-16.97;-11.6;-245.4;-114.72;17.41;-40.47;18.1;-13.19;-27.48;22.2;87.73;5.61;8.43;-207.87;-26.5;177.59;-8.26;-1.09;0.13
1;114.98;72.64;8.7;212.98;111.67;-9.5;-11.33;-233.97;-109.45;13.62;404.22;15.23;-8.04;233.55;-19.07;76.07;4.25;6.52;-216.83;-28.67;80.53;2.39;6.73;-4.79
1;-110.59;-51.84;4.84;63.02;27.44;-19.85;-14.48;-238.96;-119.36;20.39;-42.44;29.64;-12.92;-8.75;26.92;82.15;5.84;10.08;-245.3;-30.87;183.8;-3.02;-1.43;-0.36
1;120.04;72.2;8.25;222.9;109.3;-10.2;-10.77;-239.74;-155.42;6.23;409.06;16.84;-8.03;222.2;-21.35;77.58;3.46;6.3;-199.92;-24.96;107.85;1.02;6.39;-4.72
1;-113.49;-52.08;5.57;64.21;34.43;-19.65;-19.86;-238.49;-140.89;19.67;-37.38;33.25;-13.43;-0.16;17.42;103.82;6.88;10.88;-295.26;-32.04;222.67;-4.91;-0.85;-0.45
1;131.74;67.23;8.06;219.1;117.45;-5.86;-12.9;-240.7;-156.74;5.94;420.37;17.63;-7.98;240.04;-34.76;71.93;3.58;5.6;-205.64;-26.22;45.55;1.75;6.48;-4.37
1;-111.1;-55.38;4.47;65.55;31.32;-15.58;-11.66;-243.26;-153.91;14.74;-44.51;23.08;-13.05;-13.55;37.07;68.6;4.96;8.37;-133.17;-28.06;135.76;-6.78;-0.79;-0.65
1;127.04;66.41;8.13;218.74;94.56;-7.24;-12.22;-224.43;-130.86;3.12;420.6;20.67;-7.57;187.89;-27.68;88.62;3.33;6.59;-198.84;-24.11;122.45;1.88;6.9;-4.84
1;-109.94;-52.94;5.61;60.47;36.19;-14.93;-13.62;-242.83;-152.16;19.42;-46.41;20.99;-12.79;-16.97;31.48;70.59;5.91;9.18;-166.98;-30.71;130.4;-0.75;-0.2;-1.07
1;117.48;79.12;9.01;224.26;124.43;-11.88;-12.13;-254.94;-163.07;-0.91;411.08;20.71;-7.88;257.68;-33.6;83.26;3.16;6.8;-228.58;-24.91;117.32;4.63;6.56;-5.26
1;-106.77;-61.54;4.01;60.97;23.02;-13.65;-8.98;-249.48;-131.36;7.27;-23.86;16.47;-13.06;-29.79;32.13;79.23;3.59;7.01;-194.24;-23.44;138.48;-5.52;-1.2;-0.4
1;115.1;83.82;8.77;231.3;129.97;-10.7;-11.02;-265.28;-162.36;1.23;429.81;15.78;-8.1;245.09;-22.68;63.2;2.9;6.11;-163.03;-24.26;87.55;2.1;5.72;-4.94
1;-106.94;-60.55;3.09;59.52;25.76;-10.74;-14;-236.22;-110.77;14.76;-42.47;22.15;-12.52;-25.94;26.62;101.17;5.47;8.78;-270.37;-22.86;217.75;-6.77;0.04;-0.28
1;116.4;61.46;7.05;224.97;109.99;-10.45;-12.63;-223.61;-155.4;1.08;414.12;24.02;-8.86;209.61;-23.71;57.63;3.3;7.11;-168.68;-22.83;68.31;-0.49;6.51;-5.06
1;-108.83;-61.75;3.68;50.01;24.34;-12.06;-10.41;-217.33;-119.01;16.95;-34.31;16.72;-12.82;-39.05;29.3;80.69;5.29;7.44;-196.84;-24.22;176.52;-7.36;-0.35;-0.38
1;105.42;78.88;7.22;226.04;121.44;-9.34;-12;-260.33;-181.79;-0.55;411.98;20.5;-8.71;245.08;-16.16;85.2;3.12;6.96;-175.02;-21.87;214.61;1.22;5.76;-4.94
1;-103.87;-57.94;5.02;61.12;29.14;-16.02;-16.23;-232.08;-138.56;17.74;-42.23;23.89;-13.01;-25.78;16.8;86;6.03;9.06;-261.7;-27.66;119.25;-1.68;-0.41;-0.93
1;121.08;77.6;6.43;205.27;113.62;-5.27;-9.13;-230.1;-145.63;1.94;399.27;16.12;-8.41;196.05;-9.57;69.85;2.72;4.81;-153.42;-22.05;94.27;0.08;6.89;-4.7
1;-111.95;-58.54;3.82;53.99;28.11;-14.33;-12.7;-235.84;-122.51;16.8;-60.94;17.83;-12.61;-25.22;20.88;74.74;5.45;8.27;-198.51;-23.72;200.3;-3.93;-0.3;-0.59
1;108.94;72.71;8;220.78;115.28;-12.22;-12.04;-245.83;-169.83;5.55;400.06;22.19;-8.43;234.84;-19.85;73.65;3.47;6.95;-181.79;-25.8;145.51;1.28;6.63;-4.93
1;-105.6;-63.72;3.72;51.46;27.08;-15.56;-14.45;-216.97;-134.44;16.99;-56.59;18.17;-12.7;-30.64;25.8;72.7;5.56;8.42;-197.03;-24.04;142.53;-5.9;0.06;-0.81
1;116.23;75.87;8.08;214.79;107.94;-9.4;-9.93;-243.62;-148.2;4.32;404.4;16.95;-8.27;205.88;-8.05;62.47;3.04;6.27;-144.59;-24.72;108.15;1.06;6.18;-4.62
1;-111.18;-49.73;4.43;57.31;25.83;-14.1;-13.73;-231.17;-126.77;17.78;-52.36;22.73;-12.71;-14.57;20.9;69.93;5.66;8.37;-190.72;-29.29;160.73;-5.64;-0.86;-0.52
1;114.33;81.38;7.44;216.43;119.02;-8.84;-11.01;-240.35;-153.25;3.33;393.67;15.87;-8.63;242.04;-18.13;87.74;3.35;5.74;-222.82;-23.93;191.1;0.61;6.17;-5.03
1;-112.05;-56.9;4.65;60.99;28.7;-16.48;-14.63;-239.23;-136.88;17.16;-49.09;25.36;-13.04;-17.31;28.23;83.22;5.65;9.05;-238.9;-26.89;158.76;-4.73;-0.93;-0.49
1;130.45;78.89;8.59;232.46;120.63;-12.44;-11.37;-255.77;-157.5;-0.62;429.75;15.31;-8.6;238.16;-26.26;75.4;3.2;5.68;-174.96;-26.97;130.55;1.63;6.71;-5.18
1;-108.09;-56.53;4.96;60.37;24.86;-13.9;-9.89;-236.31;-111.18;14.2;-37.03;20.24;-13.01;-9.57;25.04;73.26;4.68;7.47;-152.04;-28.47;153.12;-6.02;-0.68;-0.03
1;126.6;73.31;7.12;222.24;108.9;-10.66;-11.61;-240.65;-149.72;-1.93;429.24;15.9;-8.56;209.69;-20.15;84.04;2.64;5.59;-222.94;-22.95;61.34;0.38;6.23;-4.96
1;-115.4;-65.44;3.21;60.8;29.89;-13.48;-10.56;-244.5;-124.75;11.41;-44.05;23.51;-12.64;-28.52;27.23;70.19;4.77;8.58;-188.07;-24.1;170.12;-7.67;-0.79;-0.42
1;111.12;77.98;7.65;219.14;109.18;-8.94;-14.33;-228.98;-153.99;0.6;404.38;29.45;-8.31;207.36;-6.01;87.06;4;7.72;-215.48;-24.05;153.54;1.93;6.74;-5.67
1;-110.96;-58.67;4.47;50.18;27.53;-30.3;-14.02;-217.02;-127.18;22.21;-55.4;28.7;-12.88;-20.48;23.8;99.67;6.41;10.45;-319.83;-30.43;211.28;-6.2;-0.52;-0.41
1;116.14;66;7.38;231.36;109.05;-11.88;-8.56;-246.99;-142.49;-0.5;412.03;12.19;-9.15;207.7;-12.57;67.9;2.13;5.54;-179;-23.49;130.16;0.09;5.08;-3.92
1;-111.26;-50.65;3.2;52.8;31.43;-13.42;-13.83;-219.95;-136.11;9.22;-53.28;24.37;-12.38;-13.05;22.99;66.82;4.5;7.85;-186.32;-20.13;125.57;-7.67;0.84;-1.17
1;111.88;71.07;7.37;223.78;120.91;-8;-9.99;-255.42;-170.13;0.32;417.83;14.38;-9.1;220.87;-21.18;61.56;2.74;5.72;-180.6;-23.05;124.28;-0.3;5.65;-4.73
1;-109.23;-49.59;4.22;61.28;23.53;-19.15;-13.54;-243.95;-119.54;14.79;-53.28;20.38;-12.97;-22.11;18.88;89.14;5.09;9.11;-219.96;-24.38;142.05;-7.29;-0.72;-0.7
1;123.48;84.99;6.87;217.92;115.29;-6.56;-10.75;-242.88;-174.32;1.19;418.64;17.72;-8.44;204.28;-19.95;95.83;3.26;5.77;-237.33;-22.7;109.69;1.82;6.85;-5.3
1;-106.98;-61.39;4.8;62.14;30.43;-14.74;-12.3;-234.04;-143.92;15.78;-47.85;25.2;-13.11;-20.6;38.11;87.31;5.52;9.06;-214.94;-28.35;167.74;-5.37;-0.77;-0.93
1;120.71;90.01;6.8;205.74;119.91;-8.15;-12.33;-229.74;-155.8;2.5;402.36;17.75;-8.2;235.62;-16.77;74.67;3.13;5.79;-162.61;-24.09;161.91;0.97;6.07;-5.34
1;-116.1;-57.18;5.58;60.09;32.29;-14.4;-16.01;-228.63;-148.23;21.16;-51.99;23.44;-13.37;-14.18;29.46;88.92;6.63;8.84;-209.63;-29.08;192.32;-1.43;-0.48;-0.84
1;137.12;72.53;7.1;213.15;105.85;-4.36;-10.88;-237.63;-153.78;10.87;420.83;14.88;-8.37;202.88;-21.73;65;3.59;4.64;-161.18;-27.71;74.75;-0.13;6.72;-4.32
1;-111.97;-51.9;4.25;58.51;31.01;-14.79;-11.99;-236.94;-137.66;18.33;-46.36;23.05;-12.47;-12.59;28.31;71.67;5.62;8.6;-180.14;-29.97;142.95;-4.32;-0.06;-0.74
1;113.03;69.97;6.92;221.66;121.5;-11;-9.2;-228.29;-147.55;3.14;395.28;18.13;-9.24;239.18;-27.79;57.51;2.8;6.3;-158.37;-23.61;123.25;-0.89;6.03;-4.68
1;-107.36;-52.62;3.91;59.91;33.02;-14.33;-16.35;-238.21;-145.01;15.73;-46.6;31.03;-12.64;-7.51;30.8;82.55;5.88;9.52;-212.97;-26.3;183.28;-7.09;-0.11;-0.69
1;108.68;73.42;8.13;216.48;111.01;-11.11;-11.59;-238.34;-158.3;4.33;405.07;21.37;-8.52;211.03;-18.84;81.87;3.56;7.77;-212.48;-24.74;162.36;1.98;6.28;-5.19
1;-112.55;-51.88;5.22;61.04;25.45;-23.77;-13.13;-243.15;-132.8;17.65;-51.94;23.85;-13.06;-25.41;20.85;99.63;5.57;10.06;-273.7;-31.79;182.5;-2.81;-1.15;-0.95
1;124.49;78.4;8.54;213.22;110.16;-13.56;-16.01;-221.39;-144.47;12.69;404.95;24.11;-8.31;247.48;-33.25;80.12;4.67;6.75;-179.4;-30.06;123.91;1.92;6.93;-4.85
1;-109.5;-61.59;4.09;55.53;27.35;-20.05;-13.23;-231.51;-139.04;18.98;-47.26;25.48;-12.24;-19.93;43.09;82.36;5.65;9.27;-173.34;-29.73;214.36;-3.38;-0.72;-0.4
1;110.81;69.84;8.02;232.98;121.41;-10.73;-10.68;-243.35;-156.67;0.42;435.12;14.13;-8.89;214.35;-24.68;63.64;2.58;5.16;-168.72;-25.19;106.13;1.11;5.27;-4.37
1;-107.78;-52;4.42;62.6;35.73;-16.03;-13.63;-231.35;-153.41;13.55;-38.33;27.68;-12.97;-1.65;24.55;81.6;5.05;9.16;-222.21;-25.3;150.75;-4.28;-0.22;-1.05
1;131.61;68.34;6.93;215.35;110.71;-7.15;-9.38;-254.44;-144.27;10.17;417.45;13.83;-8.63;199.61;-18.66;62.31;3.15;4.47;-147.33;-24.14;93.77;-0.05;6.8;-4.22
1;-108.31;-50.73;5.58;67.13;38.71;-20.29;-16.53;-248.04;-161.92;19.54;-39.27;36.21;-12.7;-1.56;19.33;86.43;6.2;10.96;-272.85;-30.62;162.57;-1.1;-0.21;-0.93
1;123.01;73.58;6.78;226.09;126.19;-4.53;-9.71;-237.72;-154.31;9.91;438.48;18.85;-8.04;237.43;-7.56;82.37;3.23;5.94;-173.89;-25.64;170.56;0.44;7.73;-5.35
1;-115.28;-50.54;3.2;60.58;34.83;-20.82;-23.91;-252.38;-144.32;21.96;-58.68;32.78;-12.85;-18.61;16.91;106.89;7.78;11.07;-343.53;-23.59;200.09;-7.75;-0.65;-0.91
1;112.84;82.34;6.83;231.64;124.61;-9.46;-10.22;-240.2;-157.1;3.43;430.29;22.36;-8.04;221.49;-6.98;75.17;2.88;6.95;-130.13;-26.35;157.67;0.03;7.88;-5.93
1;-106.87;-62.4;4.45;50.56;23.81;-20.96;-18.19;-217.73;-116.02;23.09;-58.46;28.03;-13.01;-33.24;9.48;107.42;7.16;10.41;-358.56;-27.27;207.46;-3.73;0.05;-0.56
1;118.94;61.88;6.14;214.39;115.63;-8.71;-11.86;-219.81;-158.06;3.98;405.61;23.56;-8.55;220.3;-14.03;50.95;3.03;6.41;-137.98;-22.97;75.37;-0.78;6.93;-4.65
1;-102.19;-60.94;4.03;52.68;26.54;-15;-14.46;-213.62;-122.96;14.83;-52.79;22.26;-12.67;-34.23;14.78;78;5.31;8.88;-246.24;-25.99;167.97;-5.49;0.36;-0.88
1;116;79.13;8.19;217;126.54;-8.46;-10.64;-227.84;-160.99;6.44;403.6;15.21;-9.01;242.15;-8.69;64.99;3.14;6.01;-155.42;-27.09;178.09;1.05;5.78;-4.64
1;-106.74;-53.99;4.33;66.75;36.54;-15.77;-14.71;-240.38;-142.3;15.12;-32.26;27.43;-12.58;-7.92;28.28;75.95;5.36;9.23;-207.87;-27.93;162.25;-3.86;-0.55;-1
1;124.28;69.7;8.04;224.64;124.61;-6.8;-9.67;-238.71;-157.35;14.67;420.63;14.06;-9.22;222.32;-27.7;55.25;3.9;5.37;-160.53;-31.3;70.94;0.39;5.83;-4.02
1;-109.18;-57.2;5.85;69.63;41.35;-19.28;-16.34;-255.35;-172.8;18.88;-36.3;31.49;-12.66;-10.57;23.06;91.42;6.15;10.42;-262.7;-29.92;158.9;0.86;0.05;-1.61
1;126.46;75.23;8.76;216.11;117.85;-18.09;-11.88;-238.34;-157.05;13.69;402.82;22.08;-8.72;235.85;-19.12;90.47;4.37;6.84;-181.29;-32.7;191.82;1.69;6.56;-4.4
1;-111.09;-59.57;6.35;65.69;44.78;-21.2;-16.22;-241.1;-170.21;16.12;-43.31;39;-12.57;-3.63;27.65;98.42;5.88;12.01;-279.54;-29.38;228.76;1.94;0.27;-1.8
1;124.76;74.29;7.23;223.43;121.73;-6.85;-10.16;-242.27;-164.56;10.6;410.62;19.62;-8.64;232.96;-20.71;64.84;3.79;6.4;-120.21;-25.94;111.59;1.39;7.1;-4.52
1;-110.72;-56.17;5.41;58.09;33.35;-17.96;-24.34;-233.33;-153.54;20.68;-50.19;35.62;-12.98;-15.41;17.84;110.27;7.09;11.76;-338.7;-29.06;234.1;-3.28;0.14;-1.66
1;123.47;76.81;6.2;215.81;113.13;-3.87;-10.97;-218.97;-129.08;5.59;406.63;20.93;-7.4;236.86;-11.13;78.12;3.3;5.89;-177.23;-22.91;160.21;1.41;8.24;-5
1;-116.27;-55.56;5.22;58.47;31.34;-19.72;-14.12;-234.86;-137.77;16.89;-53.45;24.36;-12.99;-22.66;23.02;60.58;5.77;9.31;-195.67;-29.72;112.91;-3.01;-0.48;-1.03
1;116.57;85.75;6.8;224.17;121.24;-12.1;-12.78;-222.11;-147.15;-1.2;420.08;18.91;-8.04;236.28;-24.63;73.15;3.3;6.64;-211.06;-26.93;99.96;1.22;7.14;-5.72
1;-107.73;-63.28;4.62;55.69;26.79;-12.25;-13.29;-234.11;-126.61;13.45;-55.72;22.97;-12.97;-35.25;26.1;61.55;5.1;8.45;-185.42;-27.63;133.41;-3.87;-0.13;-0.6
1;115.99;78.8;7.85;220.9;118.49;-11.52;-11.9;-234.57;-159.51;3.9;418.09;18.8;-8.56;199.84;-0.13;73.43;3.34;6.7;-156.43;-22.93;142.6;3.19;6.21;-5.25
1;-112.6;-56.34;5.37;61.04;23.04;-21.14;-19.88;-247.89;-112.3;20.47;-55.6;25.52;-13.22;-32.09;17.04;112;7.1;10.88;-347.41;-30.52;221.7;-4.92;-1.43;-0.91
1;128.66;81.4;7.07;212.38;125.81;-11.82;-10.41;-235.18;-160.57;8.25;396.79;18.79;-8.77;256.18;-20.58;84.01;3.84;6.08;-209.44;-24.83;184.25;-1;6.89;-5.09
1;-115.64;-63.74;5.58;62.66;27.84;-20.38;-20.83;-247.83;-147.21;19.39;-53.33;31.05;-13.41;-30.69;15.2;96.17;6.61;10.6;-312.85;-30.79;186.8;-5.03;-0.88;-1.06
1;131.69;76.08;8.17;213.11;118.79;-9.06;-12.82;-222.8;-145.83;10.49;396.05;21.41;-8.57;251.3;-9.76;85.31;3.98;6.06;-182.69;-24.76;226.01;1.21;6.31;-4.47
1;-113.48;-53.5;4.97;65.15;31.86;-19.09;-16.5;-247.2;-142.18;18.45;-43.09;29.14;-13.19;-7.92;18.08;85.96;5.81;9.36;-258.48;-25.87;180.69;-5.24;-0.8;-0.55
1;139.82;74.9;8.53;217.88;107.2;-6.27;-11.34;-236.49;-149.09;7.88;418.69;14.77;-8.24;222.56;-18.17;92.9;3.66;4.5;-197.11;-28.38;125.2;1.55;6.3;-4.12
1;-113.87;-56.97;5.75;61.83;34.33;-19.47;-14.1;-241.85;-151.72;15.95;-42.42;29.82;-12.93;-11;21.17;86.07;5.52;9.76;-219.69;-30.91;161.62;0.32;-0.55;-1.14
1;130.82;77.08;7.92;222.41;121.7;-1.64;-11.72;-242.76;-157.67;10.83;425.85;15.4;-8.42;220.26;-9.72;71.02;3.51;4.3;-172.72;-27.44;123.15;0.42;6.06;-4.15
1;-109.8;-51.67;5.49;62.6;36.21;-15.13;-16.32;-230.43;-158.4;18.61;-37.59;28.74;-12.43;-6.07;17.44;84.01;6;8.95;-241.95;-29.98;140.2;1.96;0.21;-1.23
1;120.59;73.92;7.59;213.03;115;-8.42;-9.87;-226.03;-145.85;9.23;402.58;13.05;-9.29;212.3;-24.37;68.11;3.63;4.6;-157.59;-27.6;109.04;-0.12;6.06;-4.15
1;-109.44;-65.74;5.15;64.33;32.63;-16.83;-13.7;-238.51;-145.05;5.93;-35.18;27.68;-12.39;-18.43;16.67;81.19;4.7;9.22;-230.57;-25.14;155.46;-1.2;0.07;-1.57
1;104.34;74.89;6.51;215.24;131.39;-8.27;-11.42;-220.42;-153.64;10.33;396.15;18.59;-8.6;254.43;-12.25;57.27;4.2;5.49;-134.95;-24.2;124.93;-0.01;7.37;-4.82
2;-115.04;-55.12;7.05;82.55;59.66;-16.04;-18.54;-256.48;-138.94;6.49;-26.86;40.82;-12.49;24.78;22.29;94.23;7.16;12.77;-219.65;-22.68;264.05;4.29;0.39;-2.47
2;110.45;58.29;8.58;218.04;117.82;1;-12.32;-288.12;-198.01;19.22;367.91;15.39;-4.07;190.86;-6.76;62.4;6.01;4.02;-106.81;-29.74;83.02;3.62;9.15;-5.61
2;-117.23;-50.21;7.19;82.16;58.55;-17.68;-21.84;-257.09;-147.99;12.88;-34.08;41.94;-12.57;30.29;3.6;106.78;8.57;13.45;-259.86;-21.14;261.14;3.96;1.3;-2.7
2;97.53;63.34;9.59;210.96;124.98;-11.93;-18.4;-332.5;-225.74;21.45;335.02;18.17;-4.5;196.95;-3.53;57.41;7.09;5.55;-81.4;-32.01;112.01;3.38;8.78;-6.4
2;-109.61;-57.49;7.35;83.9;60.44;-23.71;-24.82;-243.58;-151.54;5.66;-9.55;46.51;-12.87;42.32;27.79;114.83;8.85;14.95;-310.01;-24.65;287.83;2.86;0.23;-2.97
2;112.95;62.56;9.22;218;120.5;-5.04;-10.14;-290.63;-181.33;13.82;377.78;18.11;-3.86;198.93;-13.37;90.21;6.55;6.78;-169.97;-31.59;150.02;6.35;9.25;-5.78
2;-109.01;-46.82;7.69;82.74;60.49;-18.13;-21.48;-250.53;-142.37;6.59;-16.27;39.41;-12.33;39.85;23.67;99.33;7.81;13.74;-230.85;-22.96;241.67;7;1.02;-3.19
2;96.11;52.96;8.69;223.17;114.33;-4.6;-10.15;-270.42;-167.79;11.63;381.97;18.41;-4.44;192.62;-15.17;89.87;5.45;6.47;-195.16;-30.71;148.08;5.76;8.51;-5.61
2;-118.07;-49.42;7.7;87.6;64.95;-19.51;-18.53;-270.19;-138.28;6.72;-20.22;38.52;-12.61;42.18;28.79;100.77;7.3;13.37;-245.61;-23.3;236.3;4.03;0.92;-2.96
2;95.67;64.46;8.82;214.94;118.18;-5.43;-12.53;-290.09;-185.87;15.69;364.33;17.9;-4.02;194.01;-18.03;84.98;5.76;5.98;-152.89;-33.14;119.44;3.78;8.83;-6.2
2;-119.74;-51.69;7.56;82.62;65.73;-16.98;-17.53;-267.33;-150.97;6.36;-34.64;41.74;-13;42.38;23.54;106.8;7.56;13.23;-246.09;-23.49;258.97;4.98;0.85;-2.93
2;98.78;68;9.72;220.12;135.76;-5.09;-15.03;-296.02;-228.84;17.65;378.36;17.01;-3.75;215.64;-22.63;88.19;6.47;6.01;-138.04;-33.24;172.99;6.2;8.98;-6.51
2;-109.32;-57.24;7.88;88.84;69.56;-18.25;-17.93;-269.77;-160.92;4.82;-17.44;42.83;-13;52.06;24.96;90.65;7.59;14.02;-210.98;-23.39;221.58;4.3;0.73;-2.71
2;99.67;50.71;8.88;221.47;126.71;-10.96;-13.27;-306.23;-219.42;16.23;368.31;16.16;-4.05;222;-10.47;61.61;5.61;5.6;-125.72;-32.64;78.45;5.51;8.89;-5.59
2;-113.36;-50.66;8.68;88.36;67.91;-19.39;-20.27;-274.05;-154.62;7.59;-22;42.42;-13.02;55.02;22.7;119.46;7.95;14.2;-263.52;-26.46;290.11;3.85;0.36;-2.64
2;88.72;59.13;8.68;227.94;132.58;-4.67;-13.94;-320.51;-220.78;20.35;369.41;17.11;-4.01;202.97;-13.03;88.13;6.65;6.13;-149.17;-28.82;119.75;5.63;8.52;-5.94
2;-126.48;-57.17;8.08;96.41;72.26;-19.15;-22.84;-278.6;-155.44;8.48;-14.84;45.87;-12.77;57.7;18.89;122.12;8.23;14.03;-285.79;-26.3;287.38;4.3;-0.14;-2.69
2;122.12;65;7.92;210.31;129.3;-7.09;-14.04;-280.58;-201.14;14.38;367.89;17.85;-3.39;204;-14.32;74.69;5.53;5.14;-142.63;-30.89;128.11;5.15;9.85;-6.17
2;-115.87;-48.95;8.34;88.97;73.29;-19.51;-20.04;-278.15;-153.37;6.83;-20.95;41.83;-12.96;61.45;29.41;105.65;8.16;13.99;-214.45;-25.43;269.76;1.45;0.54;-3
2;87.74;64.34;8.77;221.01;132.83;-5.46;-11.03;-296.02;-200.48;17.64;360.97;16.27;-4.46;222.69;-18.13;81.38;6.37;5.62;-148.22;-32.17;121.18;4.86;8.46;-5.8
2;-130.02;-57.23;7.43;93.05;71.56;-19.81;-18.53;-280.64;-153.68;4.76;-27.03;37.5;-13.26;65.33;32.45;95.57;6.96;12.74;-203.77;-23.78;256.58;2.31;-0.49;-2.7
2;116.54;66.86;7.42;212.02;125.49;-2.97;-10.99;-273.8;-173.88;12.7;360.38;16.58;-2.85;216.9;-29.85;59.6;4.6;4.53;-140.16;-26.45;89.16;5.21;9.49;-5.88
2;-107.73;-51.15;7.75;89.63;70.9;-19.18;-18.5;-280.51;-153.42;6.29;-16.8;38.74;-13.32;51.88;34.37;86.43;7.83;13.24;-180.95;-25.47;215.28;0.85;0.59;-3.03
2;81.85;60.85;7.79;226.75;134.15;-5.16;-10.59;-298.53;-205.76;16.76;370.78;17.52;-3.9;211.43;-13.13;63.99;4.9;5.77;-129.36;-27.36;92.01;5.46;8.08;-5.78
2;-118.87;-57.61;8.64;88.59;67.17;-17.93;-25.79;-271.02;-162.28;8.68;-23.61;45.14;-12.87;49.89;28.27;125.85;8.31;14.06;-329.45;-25.28;313.95;7.01;0.03;-2.81
2;114.68;60.13;9.03;216.17;127.88;-2.21;-16.23;-308.91;-225.63;26.47;374.06;18.86;-3.76;203.12;-18.38;58.94;6.87;5.12;-115.67;-33.43;79.24;6.01;9.99;-6.12
2;-108.18;-49.75;9.6;75.8;69.08;-18.51;-22.96;-253.66;-152.3;14.3;-26.16;45.58;-12.81;51.94;14.19;123.7;9.43;14.59;-310.71;-27.87;306.09;7.74;0.81;-3.16
2;83.3;47.01;8.75;224.56;131.88;-15.71;-15.72;-286.31;-239.34;20.17;384.22;16.19;-4.21;191.88;-16.88;88.53;6.82;6.76;-135.42;-32.67;121.06;6.77;8.1;-5.37
2;-113.37;-57.34;8.58;89.47;64.84;-16.62;-22.68;-263.32;-155.85;7.12;-22.55;43.27;-12.75;47.99;39.06;118.62;8.47;13.72;-262.78;-27.14;301.72;5.44;0.44;-3.28
2;96.28;58.07;9.1;221.98;128.72;-11.18;-16.33;-286.01;-196.79;20.52;351.09;18.59;-4.06;194.83;-20.9;56.88;6.16;5.65;-128.61;-32.07;58.93;5.27;9.6;-5.71
2;-116.85;-53.07;8.21;87.48;64.68;-19.37;-21.6;-259.79;-140.86;7.59;-16.99;44.85;-12.79;45.5;7.13;104.89;8.25;14.46;-255.44;-25.85;261.31;4.08;-0.4;-2.84
2;94.35;59.48;8.62;216.51;139.58;0.29;-12.62;-246.84;-192.41;11.41;367.6;16.24;-3.38;207.85;-3.27;61.86;4.41;3.93;-117.46;-29.04;112.42;4.4;9.6;-6.95
2;-116.1;-52.92;7.72;86.82;66.4;-19.55;-16.31;-260.85;-145.37;7.55;-22.36;39.97;-13.92;57.02;31.77;99.09;7.67;13.07;-206.47;-26.7;227.8;-1.58;0.23;-2.34
2;106.58;62.37;8.26;213.54;128.84;-0.62;-13.73;-244.64;-190.15;9.34;369.91;17.7;-3;207.57;-16.09;77.99;4.94;4.93;-138.03;-28.62;123.26;5.52;9.81;-6.97
2;-112.6;-47.98;7.4;77.91;69.28;-20.92;-16.7;-256.49;-147.17;10.42;-30.8;36.58;-13.9;63.04;18.63;103.78;7.52;12.51;-189.73;-25.79;201.73;-3.07;0.82;-2.15
2;88.12;51.43;8.82;221.28;129.47;-3.63;-15.13;-257.85;-207.87;17.33;359.92;16.57;-3.84;186.62;-13.83;79;6.46;5.68;-127.53;-29.58;127.97;3.8;8.76;-6.03
2;-121.16;-53.15;7.68;90.64;71.04;-19.31;-16.9;-266.49;-150.58;12.58;-18.66;41.78;-13.31;66.96;23.64;108.24;8.14;13.26;-244.73;-25.73;273.53;-0.68;-0.36;-2.13
2;116.76;64.56;8.57;211.37;131.15;-3.05;-11.64;-266.72;-187.91;23.02;363.45;16.31;-3.57;213.9;-7.8;70.67;6.27;4.51;-136.9;-32.87;115.49;5.92;9.77;-5.81
2;-125.23;-44.13;8.28;94.86;66.63;-18.24;-16.28;-278;-143.19;11.64;-23.58;42.66;-12.96;63.89;13.71;106.34;8.08;13.83;-229.56;-26.42;214.53;0.86;0.25;-2.37
2;101.57;68.51;8.45;220.43;135.06;-9.08;-14.74;-299.89;-226.04;17.83;373.02;17.3;-3.77;210.76;-11.02;71.97;5.8;5.61;-143.68;-31.11;136.33;5.17;9.7;-6.82
2;-118.44;-56.76;8.44;91.98;72.3;-18.3;-20.5;-259.71;-161.16;7.44;-20.66;44.64;-13.49;62.01;23.35;111.85;8.23;13.88;-263.53;-26.34;280.52;2.22;0.15;-2.41
2;111.99;61.02;7.99;217.48;131.16;-1.83;-14.41;-269.21;-217.83;23.9;385.06;18.68;-2.95;190.96;-4.86;89.74;6.47;4.87;-169.55;-27.95;165.07;6.81;9.93;-6.37
2;-110.77;-50.74;8.26;82.35;64.69;-20.58;-19.9;-270.52;-144.83;14.45;-22.55;42.8;-13.62;37.96;23.8;123.84;8.52;14.58;-329.12;-26.47;295.97;1.56;-0.18;-2.72
2;87.89;47.58;8.59;225.49;123.6;-7.86;-17.42;-275.3;-195.58;17.43;355.57;22.35;-3.61;194.66;-20.76;62.01;7.14;6.43;-125.52;-23.67;106.97;5.09;8.83;-5.64
2;-124.28;-51.42;8.12;94.78;70.33;-23.4;-19.56;-264.33;-144.08;8.19;-10.27;43.36;-13.62;70.81;26.94;111.24;7.88;14.49;-303.35;-28.02;303.19;-0.17;-0.87;-2.38
2;112.21;67.04;7.34;211.21;123.9;2.44;-11.12;-250.4;-165.92;8.19;364.55;16.8;-3;208.86;-25.2;63.76;4.25;4.59;-123.09;-25.32;93.76;4.89;9.47;-6.27
2;-113.58;-52.47;8.95;82.49;70.17;-22.46;-15.41;-265.08;-154.44;8.97;-26.87;39.64;-13.84;58.35;12.8;102.98;7.77;13.74;-191.34;-27.6;222.54;2.17;1.06;-2.2
2;81.27;51.52;9.01;220.22;128.7;-3.85;-13.45;-260.95;-208.98;14.08;360.33;16.18;-3.61;199.11;-17.59;85.81;6.26;7.01;-145.14;-27.87;120.84;7.35;8.6;-5.97
2;-117.36;-52;8.18;95.54;63.5;-20.33;-18.62;-278;-145.73;7.43;-10.6;42.65;-13.37;57.88;35.1;104.54;7.71;13.53;-213.11;-26.92;247.76;3.23;-0.16;-2.4
2;105.7;54.54;9.72;209.43;116.28;-3.39;-11.84;-232.7;-173.82;11.69;364.77;18.04;-3.22;175.77;-22.11;73.81;5.29;5.03;-141.17;-33.39;95.28;6.11;9.83;-6.14
2;-106.86;-45.9;7.83;89.67;67.86;-21.87;-18.45;-275.29;-143.31;7.66;-18.65;38.85;-13.84;52.49;32.79;91.62;8.04;14.04;-186.25;-27.01;220.13;-2.46;0.56;-2.63
2;78.02;58.38;8.32;227.26;124.24;-7.47;-13.16;-300.44;-202.34;17.56;349.52;17.29;-3.62;204.94;-15.1;67.81;6.01;5.9;-135.27;-26.14;126.49;5.14;8.62;-6.17
2;-123.92;-55.24;7.41;92.85;63.67;-20.68;-20.56;-268.08;-144.82;10.55;-16.85;44.29;-13.42;44.2;26.02;98.88;8.12;13.79;-237.45;-26.09;243.16;1.1;0.05;-2.19
2;116.27;76.77;7.4;203.9;131.64;-0.35;-12.59;-276.39;-203.93;16.45;361.3;16.73;-2.81;212.89;-15.79;81.86;4.66;4.7;-134.85;-27.43;133.61;6.35;9.64;-6.51
2;-110.79;-52.25;7.5;87.5;64.18;-19.99;-19.63;-278.54;-141.77;10.1;-22.4;43.16;-13.44;39.07;32.31;103.98;8.31;14.05;-241.53;-23.64;274.2;-0.68;-0.43;-2.46
2;79.04;60.53;8.68;218.06;126.96;-6.62;-9.75;-281.11;-187.63;15.06;342.35;18.75;-4.35;211.27;-24.48;65.48;5.93;6.74;-145.94;-32.25;88.38;4.46;8.43;-5.39
2;-122.01;-59.33;7.56;96.44;68.45;-22.35;-16.78;-278.73;-152.9;7.33;-16.05;39.94;-13.17;40.09;25.14;87.53;8.04;13.45;-190.31;-22.98;231.87;4.63;0.26;-2.34
2;118.25;72.58;8.54;212.94;128.03;-18.64;-12.53;-313.54;-217.44;20.98;360.82;18.71;-2.58;205.62;-6.61;81.08;7.09;6.87;-137.35;-30.71;122.75;7.62;9.54;-6.44
2;-116.4;-57.34;8.17;89.37;65.8;-21.77;-25.42;-262.46;-161.14;8.82;-23.58;45.2;-13.32;35.37;16.1;133.45;9.78;15.41;-347.45;-25.7;353.97;5.58;0.11;-3.16
2;112.22;58.96;8.82;216.28;125.99;-2;-10.87;-265.47;-191.12;13.04;367.92;17.3;-3.4;190.34;-14.28;56.06;4.42;4.41;-116.21;-32.78;85.53;5.78;9.35;-5.75
2;-120.59;-59.41;7.45;95.18;64.57;-19.3;-14.94;-285.8;-148.7;6.8;-19.48;37.9;-13.37;36.82;32.54;88.03;7.3;12.85;-176.13;-25.03;202.01;1.19;-0.05;-2.05
2;105.75;59.12;8.82;216.37;123.65;-4.66;-14.46;-293.37;-203.96;20.74;360.7;19.38;-3.7;196.68;-12.23;73.78;6.14;5.49;-138.74;-32.55;121.83;6.91;9.38;-6.04
2;-117.43;-48.41;8.35;87.26;65.81;-17.28;-20.85;-273.7;-144.21;7.17;-26.89;45.04;-13.1;45.01;22.33;109.85;8.43;14.05;-252.2;-24.74;283.19;3.27;-0.05;-2.68
2;93.08;64.07;8.19;223.32;132.52;-2.16;-12.87;-264.54;-203.87;15.2;362.8;18.33;-3.25;207.94;-17.99;64.04;4.57;5.11;-122.36;-27.89;82.98;5.72;9.26;-6.4
2;-120.68;-57.46;7.97;96.85;70.27;-21.76;-19.04;-271.59;-153.47;11.67;-10.41;41.49;-13.63;50.07;39.57;96.31;8.18;14.21;-189.75;-26.61;259.33;1.97;0.1;-2.34
2;105.57;66.44;8.58;208.14;124.35;-1.29;-14.82;-242.45;-189.47;9.34;365.4;17.6;-3.08;203.18;-26.29;61.9;5.21;4.97;-121.33;-28.16;66.59;6.68;9.37;-6.59
2;-128.04;-56.44;7.93;96.84;68.97;-22.35;-15.34;-282.9;-154.1;7.31;-14.5;37.76;-13.65;57.97;26.16;97.21;7.22;14.09;-177.8;-26.22;212.97;-0.46;0.08;-2.15
2;108.35;65.02;9.16;214.15;136.93;-1.48;-12.22;-253.34;-187.62;19.71;382.13;20.52;-3.45;226.33;-12;80.76;6.45;5.85;-157;-30.2;128.04;7.08;9.51;-6.25
2;-127.31;-52.64;8;97.86;72.4;-19.38;-14.94;-289.9;-152.06;8.64;-22.81;39.75;-13.22;63.61;38.59;98.91;7.61;13.44;-168.41;-25.3;226.59;-0.52;-0.18;-2.38
2;100.97;63.59;8.18;229.29;127.74;-3.24;-11.73;-281.42;-193.19;12.25;377.75;18.35;-3.36;210.71;-17.22;74.11;4.96;5.61;-152.39;-28.69;130.94;5.53;9.71;-6.44
2;-122.24;-56.92;8.46;100.91;72.31;-21.3;-22.05;-299.11;-168.7;8.13;-15.8;41.76;-13.99;54.9;24.3;105.12;8.55;14.12;-250.67;-26.58;234.69;3.1;0.37;-2.45
2;95.03;62.64;9.27;227.56;137.91;-1.66;-15.59;-283.9;-228.03;17.92;359.27;17.79;-2.46;214.19;-13.09;63.07;5.88;5.43;-120.82;-28.28;92.92;8;9.39;-6.26
2;-120.68;-55.68;8.51;84.02;61.56;-19.9;-20.53;-256.07;-146.67;12.01;-30.25;42.51;-14.41;47.85;23.18;113.33;8.68;14.05;-296.33;-27.61;276.35;1.96;-0.39;-2.37
2;108.02;62.93;9.36;224.85;126.85;-0.81;-17.28;-268.5;-205.94;19.76;359.6;18.76;-3.01;206.8;-13.49;60.17;6.89;4.8;-110.36;-29.87;128.06;6.79;9.83;-6.4
2;-117.23;-51.43;9.06;89.86;69.62;-20.25;-19.19;-283.54;-159.96;10.71;-23.08;42.87;-13.99;55.58;11.67;112.98;8.71;14.31;-260.11;-28.42;255.37;3.63;-0.16;-2.26
2;86.28;52.79;9.9;232.48;139.33;-2.24;-16.76;-275.9;-224.06;16.71;368.65;18.75;-3.42;210.13;-5.29;76.94;6.63;6.2;-157.45;-30.13;105.98;7.76;9.23;-6.51
2;-112.15;-52.24;8.97;101.06;74.41;-23.35;-17.54;-284.55;-156.74;8.53;-2.35;43.8;-13.8;72.71;30.87;110.32;8.45;14.9;-257.64;-29.48;237.75;0.01;0.12;-2.29
2;84.07;56.75;8.23;234.05;139.5;-18.02;-14.22;-277.21;-215.56;17.69;381.05;17.73;-3.63;205.29;-5.07;82.96;7.41;7.8;-134.8;-26.05;151.2;7.16;8.71;-6.06
2;-133.93;-55.89;9.07;94.87;74.76;-20.33;-23.84;-282.24;-163.16;8.75;-25.67;43.82;-13.65;64.27;7.61;128.29;8.63;14.12;-338.89;-28.69;312.44;7.09;0.45;-2.36
2;134.89;80.72;8.15;210.67;135.9;2.05;-12.31;-234.65;-196.32;12.67;384.1;18.32;-1.85;217.67;-4.04;90.81;4.52;4.48;-155.14;-31.2;139.52;6.88;10.19;-7.1
2;-118.91;-50.62;7.97;93.09;72.39;-21.78;-15.25;-295.8;-159.74;9.15;-21.65;36.37;-14.18;53.86;23.68;107.39;7.9;13.3;-185.19;-26.01;197.56;-1.65;0.37;-2.02
2;85.41;54.26;8.61;229.63;137.17;-5.76;-10.77;-285.85;-185.4;12.31;365.18;16.24;-3.49;222.45;-10.64;73.06;5.67;6.5;-156.16;-29.59;124.15;5.22;9.22;-5.76
2;-131.27;-51.94;7.68;97.32;75.51;-22.64;-16.08;-290.55;-166.08;7.99;-27.31;36.7;-14.21;70.54;10.24;100.4;7.4;12.97;-181.43;-26.75;219.13;-1.85;-0.18;-1.86
2;114.02;66.76;9.04;231.23;140.03;-4.95;-11.21;-285.55;-199.99;16.07;384.41;16.58;-3.53;214.42;-1.11;72.7;5.37;4.43;-135.85;-32.89;142.74;6.31;9.37;-6.07
2;-120.26;-51.56;8.07;89.05;68.26;-20.31;-18.09;-295.98;-151.24;8.24;-33.3;40.53;-13.61;43.69;17.86;113.4;8.17;14.28;-257.32;-23.76;277.3;4.38;0.57;-2.89
2;85.3;50.46;9.16;229.78;138.95;-4.08;-11.43;-291.03;-195.59;15.63;359.05;16.16;-3.86;215.8;-3.19;74.36;6.6;6.44;-122.57;-31.81;160.91;5.41;8.71;-5.45
2;-131.52;-47.4;8.28;97.77;81.07;-23.19;-16.89;-282.42;-161.63;9.48;-24.91;41.27;-13.76;88.33;24.03;116.03;8.19;14.13;-200.51;-27.06;258.15;0.18;0.33;-2.85
2;117.04;69.35;7.8;219.8;138.79;-13.59;-16.45;-297.93;-217.94;17.3;374.04;17.25;-2.82;207.16;-17.87;80.99;5.85;6.03;-158.61;-29.66;144.05;5.52;9.8;-6.36
2;-114.12;-46.54;9.31;83.31;73.23;-20.45;-21.76;-274.34;-156.59;7.61;-32.14;44.79;-13.57;65.97;18.42;131.48;8.47;14.95;-318.86;-27;302.37;4.81;0.72;-3.27
2;85.89;53.46;8.74;233.2;135.32;-7.66;-13.59;-265.76;-195.31;15.26;377.29;20.24;-4;201.69;-12.13;80.72;6.49;7.07;-145.43;-27.59;144.42;6.12;8.99;-5.93
2;-140.76;-57.91;7.28;98.03;72.41;-21.33;-17.75;-288.4;-159.85;8.08;-26.65;42.13;-14.17;66.08;16.38;104.36;7.37;13.67;-221.37;-26.91;245.88;0.01;0.47;-2.3
2;140.94;74.27;9.04;213.47;123.54;-9.8;-13.87;-271.92;-210.15;22.27;371.87;16.46;-1.57;188.54;-6.79;76.28;7.08;5.73;-183.97;-32.54;164.62;7.99;9.46;-5.95
2;-105.53;-41.54;9.88;84.07;70.92;-23.11;-18.63;-279.77;-147.15;8.65;-21.6;42.92;-13.52;63.13;20.83;123.07;8.72;15.32;-276.59;-30.2;273.31;3.69;1.21;-3.85
2;72.33;42.79;8.86;243.49;133.92;-9.83;-16.85;-277.63;-217.1;16.96;380.54;16.26;-4.09;207.56;-13.76;49.47;5.78;6.81;-120.5;-28.33;73.74;6.5;8.74;-5.44
2;-132.95;-58.92;8.75;95.02;66.57;-20.33;-21.28;-278.49;-157.73;7.76;-28.24;44.32;-13.8;51.97;14.42;106.21;8.03;13.92;-255.67;-28.35;244.73;5.24;0.79;-2.02
2;127.38;74.53;9.22;205.3;129.92;2.96;-14.95;-232.95;-195.25;11.82;369.91;17.1;-2.47;202.28;-26.33;74.82;4.92;4.31;-146.77;-32.8;79.37;8.08;9.7;-7.03
2;-127.17;-59.12;8.42;103.66;75.09;-24.81;-17.82;-282.32;-160.82;9.71;-10.22;34.51;-13.81;56.89;47.81;89.34;8.21;13.55;-112.27;-29.18;197.4;2.46;-0.2;-2.21
2;98.07;70.81;8.72;211.22;134.02;-2.58;-14.34;-268.57;-184.39;16.41;352.27;17.51;-1.99;219.32;-19.81;81.84;5.22;5.22;-148.67;-30.83;124.78;7.78;9.79;-6.97
2;-137.1;-62.19;8.13;95.92;65.99;-22.57;-15.59;-276.47;-161.67;9.84;-26.21;40.38;-14.2;41.37;18.99;103.47;7.93;13.41;-229.89;-29.11;263.63;-1.19;-0.15;-1.65
2;131.62;71.58;9.19;216.22;135.65;-0.67;-16.96;-237.29;-210.88;9.84;382.45;17.53;-2.43;210.61;-12.91;71.32;4.55;5.06;-117.16;-30.62;141.97;7.83;10.49;-7.01
2;-108.12;-49.91;7.68;89.17;69.27;-21.37;-17.23;-291.13;-157.98;8.46;-22.82;38.4;-14.05;49.82;25.29;101.11;7.98;13.9;-168.88;-25.93;208.15;-2.09;0.79;-2.47
2;74.95;51.37;9.36;228.09;136.89;-5.85;-14.92;-286.67;-202.07;10.24;372.59;18.29;-4.09;224.09;-15.6;71.2;5.03;6.01;-157.23;-33.4;137.78;6.56;8.69;-6.13
2;-139.5;-58.67;7.84;104.88;69.84;-21.44;-15.7;-295.95;-162.44;8.17;-25.4;35;-13.75;62.26;33.85;87.35;7.39;12.6;-136.42;-26.8;204.71;0.53;-0.02;-2.1
2;128.98;86.66;8.33;197.4;131.59;-2.75;-14.57;-243.5;-195.17;13.12;345.65;18.89;-1.43;234.89;-16.88;69.73;4.54;4.91;-130.18;-29.76;125.43;6.4;10.46;-7.39
2;-112.06;-52.96;8.15;82.23;69.02;-20.79;-15.95;-269.93;-162.24;9.48;-25.2;40.53;-14.18;53.06;12.05;103.61;8.35;13.7;-217.37;-27.35;213.11;-1.17;0.22;-1.91
2;87.43;47.95;10.63;226.1;133.66;-3.24;-17.61;-267.92;-219.37;19.05;370.23;21.48;-3.89;207.73;-3.6;86.8;6.48;7.01;-161.47;-32.88;121.11;8.93;9.43;-6.06
2;-131.72;-56.44;7.92;95.03;62.4;-17.8;-15.71;-282.3;-149.47;8.3;-28.5;40.3;-14.29;47.87;22.98;93.15;7.96;12.91;-213.73;-26.45;226.31;1.42;0.35;-1.66
2;116.22;65.97;9.56;226.45;135.21;-3.3;-11.67;-253.37;-197.11;15.44;387;17.39;-2.79;208.48;-13.22;82.57;6.67;5.5;-193.39;-30.42;112.98;8.48;9.1;-6.29
2;-128.24;-60.82;8.43;103.98;71.45;-23.47;-18.46;-296.94;-164.33;8.99;-13.82;40.69;-13.74;43.61;31.58;104.57;8.22;14.03;-249.22;-26.09;228.31;4.78;0.34;-2.46
2;103.12;67.53;8.87;226.23;141;0.09;-11.99;-287.71;-189.62;11.68;374.32;21.65;-2.63;224.63;-6.51;95.21;4.36;5.12;-174.49;-30.66;197.76;6.76;9.09;-6.51
2;-142.95;-57.48;7.37;96.04;73.83;-20.9;-16.15;-287.31;-161.51;8.43;-30.24;39.15;-14.13;63.63;16.57;91.88;7.6;12.85;-181.98;-26;205.22;1.37;0.68;-2.36
2;128.32;84.18;9.02;199.91;137.36;-7.62;-19.23;-262.86;-230.38;13.7;343.68;18.99;-1.56;220.23;-21.48;83.15;5.26;5.29;-173.16;-30.96;123.94;7.42;9.85;-7.12
2;-110.6;-52.79;7.85;92.74;78.29;-21.5;-16.95;-278.64;-158.5;8.95;-13.06;40.29;-14.21;64.53;43.93;103.33;8.36;14.01;-167.99;-27.53;226.38;-1.35;0.35;-2.42
2;84.86;56.32;10.43;233.71;132.58;-7.68;-15.66;-284.57;-218.04;17.4;364.65;17.78;-3.43;215.67;-21.74;95.9;6.04;6.63;-150.17;-33.8;206;9.16;8.59;-6.13
2;-116.85;-54.17;9.25;97.39;73.57;-19.72;-18.8;-290.31;-158.36;8.77;-21.74;41.71;-13.63;55.17;11.94;116.43;8.74;14.25;-272.78;-27.96;275.01;5.95;0.5;-3.09
2;89.61;51.88;9.81;237.5;140.97;-3.76;-13.84;-279.99;-197.21;12.03;381.6;17.74;-3.37;212.75;0.72;83.9;6.19;5.87;-166.28;-30.36;162.39;9.54;8.9;-6.03
2;-139.78;-55.99;8.54;105.12;73.89;-24;-18.24;-302.94;-157.73;8.96;-20.86;41.89;-13.53;63.71;18.17;103.94;8.39;14.2;-196.31;-27.23;238.51;4.5;0.7;-2.57
2;142.59;83.28;8.13;207.92;132.06;2.46;-16.11;-280.58;-227.29;20.19;366.86;18.59;-1.98;205.51;-11.96;75.32;5.96;5.09;-161.01;-27.15;110.69;7.09;10.06;-7.29
2;-113.73;-58.42;8.41;93.28;72.25;-19.42;-20.64;-278.34;-158.33;13.06;-13.11;43.5;-13.94;48.21;25.28;121.87;8.94;14.77;-297.42;-28.06;287.21;2.75;-0.68;-2.57
2;72.28;59.14;8.5;225.56;147.33;-5.56;-13.44;-275.57;-194.79;6.8;366.49;17.74;-3.47;233.23;-14.73;79.01;4.42;5.6;-138.83;-29.88;117.37;6.55;8.46;-6.25
2;-143.15;-58.81;7.5;107.42;67.95;-19.38;-16.13;-304.18;-152.42;9.7;-16.94;27.31;-13.67;56.95;28.54;77.26;7.7;11.85;-139.65;-26.69;144.66;-2.7;0.84;-2.28
2;148.04;88.83;8.12;206.02;135.63;-0.29;-14.04;-263.96;-207.45;12.91;371.67;19.79;-1.84;224.05;-16.08;68.53;4.82;5.26;-141.24;-28.83;114.19;6.16;10.23;-7.31
2;-105.9;-53.91;8.71;92.72;76.1;-21.45;-15.68;-296.83;-179.91;7.88;-16.45;40.55;-13.79;54.53;24.09;96;8.14;14.25;-202.8;-27.24;199.84;-1.13;0.63;-2.46
2;66.93;53.5;9.18;242.82;149.15;-9.65;-12.58;-291.16;-225.52;17.14;372.65;16.21;-4.26;223.03;-5.13;72.14;5.83;6.25;-127.52;-32.1;97.03;6.59;7.59;-5.58
2;-136.56;-65.52;8.54;91.59;70.98;-20.53;-20.47;-273.84;-169.57;7.05;-25.85;43.77;-13.29;56.68;28.59;106.76;8.09;13.29;-278.99;-26.71;291.2;6.68;1.27;-2.91
2;164.87;86.27;8.76;217.54;140.58;-1.19;-13.12;-229.2;-203.08;8.95;413.5;20.61;-2.42;235.51;-18.24;82.19;5.1;6.21;-146.03;-33.98;102.01;6.69;10.1;-6.98
2;-125.37;-55.44;7.68;89.5;71.41;-15.9;-14.59;-297.03;-159.29;7.36;-44.92;33.37;-13.6;37.04;27.91;73.08;7.79;12.08;-124.74;-22.74;181.88;0.71;0.51;-2.42
2;88.5;56.38;9.37;234.75;139.11;-3.7;-12.25;-293.28;-194.27;15.14;375.66;17.9;-3.4;203.73;-2.47;77.57;5.19;5.36;-119.09;-31.68;162.84;7.56;9.14;-6.17
2;-143.22;-56.28;7.41;103.27;70.36;-20.86;-15.93;-295.96;-158.64;8.5;-29.68;41.1;-13.89;56.14;17.76;98.83;7.67;13.05;-203.93;-25.67;216.84;-1.23;0.19;-2.07
2;121.12;79.37;9;210.65;144.17;-1.93;-13.6;-268.67;-191.35;11.83;366.5;17.6;-2.32;237.26;2.78;94.89;4.82;4.43;-164.63;-32;233.63;7.26;9.97;-7.19
2;-123.6;-46.04;8.43;103.09;75.73;-21.87;-18.08;-309.4;-163.78;10.94;-24.47;39.19;-13.88;63.95;17.18;118.23;9.03;13.81;-220.73;-27.48;269.98;-2.07;-0.76;-2.96
2;81.61;62.79;9.43;248.34;148.51;-1.94;-10.7;-304.93;-213.7;18.84;382.03;19.64;-3.35;240.55;-3.73;65.79;6.25;6.12;-115.54;-32.15;114.18;7.25;8.63;-5.9
2;-135.75;-62.45;8.24;106.29;67.21;-21.32;-18.64;-298.13;-159.66;10.63;-18.93;42.98;-13.97;48.8;31.89;109.47;8.42;13.66;-254;-26.76;256.2;3.43;0.14;-2.32
2;116.63;73.42;9;206.77;132.76;-1.76;-12.63;-255.37;-181.48;9.83;365.66;18.55;-2.23;214.93;-7.76;82.2;4.29;4.65;-161.79;-32.39;141.6;7.18;9.9;-7.21
2;-133.31;-51.24;8.51;102.89;77.95;-20.15;-16.03;-298.01;-164.3;9.33;-25.96;38.02;-13.57;65.81;14.7;93.59;8.08;12.88;-165.39;-27.26;213.66;1.71;0.05;-2.01
2;110.43;68.5;8.87;220.52;141.89;2.71;-14.86;-285.91;-223.79;17.2;369.17;16.42;-2.38;228.85;-7.53;56.93;5.19;4.39;-117.79;-33.23;115.87;6.77;10.01;-6.71
2;-117.59;-51.58;8.4;96.04;66.66;-24.2;-19.12;-288.98;-158.91;11.29;-19.4;43.27;-14.16;41.32;22.91;114.36;9.52;14.59;-224.74;-27.08;245.25;0.58;0.72;-2.41
2;91.43;59.93;8.38;232.46;147.17;-3.44;-17.34;-285.48;-222.02;12.65;352.56;17.21;-2.66;238.44;-3.28;72.95;4.83;4.88;-122.15;-32.48;145.72;6.25;9.33;-6.46
2;-124.26;-52.25;7.54;103.93;68.64;-17.34;-18.5;-308.43;-155.78;14.95;-21.98;39.12;-14.55;51.52;17.36;98.15;9.14;13.17;-177.29;-26.19;221.9;-3.77;0.21;-1.82
2;93.53;62.84;9.16;246.9;157.38;-5.39;-13.7;-301.87;-224.51;18.28;394.83;17.35;-3.16;230.02;9.81;101.15;6.27;5.85;-138.9;-28.14;248.44;7.86;9.2;-6.82
2;-128.86;-43.42;7.23;93.8;64.78;-17.57;-17.08;-283.91;-134.24;8.94;-28.41;39.28;-13.76;54.4;3.96;107.85;8.43;13.03;-230.51;-24.68;211.69;-1.43;0.79;-2.06
2;102.57;71.5;9.58;220.41;151.78;1.37;-13.79;-276.59;-223.84;11.69;373.14;17.27;-2.69;246.6;-4.92;87.52;6.29;5.17;-174.86;-33.34;149.55;8.17;9.29;-7.42
2;-131.23;-52.49;6.94;117.72;69.3;-24.81;-17.99;-327.66;-145.28;11.83;2.42;34.35;-14.28;44.51;37.49;90.54;8.99;14.13;-128.43;-23.96;187.69;-4.44;-0.46;-2.06
2;112.48;70.79;11.16;226.61;144.53;-1.13;-26.75;-300.65;-228.08;13.24;385.04;22.21;-3.19;214.67;-13.27;106.9;6.96;6.09;-192.98;-37.2;252.83;7.25;8.94;-8.03
2;-168.15;-54.78;7.04;137;83.24;-39.77;-20.61;-390.34;-163.59;10.03;-8.47;31.96;-14.31;67.3;16.02;127.93;9.65;16.16;-202.98;-25.41;283.93;-4.72;-1.01;-1.65
2;131.04;79.94;10.05;234.02;157.51;0.87;-19.5;-301.9;-249.87;7.22;404.99;18.95;-0.77;238.94;16.58;66.69;5.36;4.74;-96.78;-27.44;165.06;9.09;10.21;-9
2;-98.98;-45.27;8.33;96.74;68.87;-22.99;-18.57;-304.42;-153.75;8.04;-3.66;35.27;-14.61;57.37;23.97;93.43;8.26;14.64;-195.73;-27.5;139.16;-2.76;1.13;-2.69
2;64.85;46.18;9.31;239.45;150.91;-7.95;-13.34;-297.76;-185.3;9.89;378.49;17.61;-4.39;251.96;-9.73;61.55;5.2;6.29;-151.09;-34.06;128.21;7.11;8.61;-6.3
2;-140.02;-55.81;7.77;109.03;68.58;-20.41;-16.42;-308.85;-151.37;8.91;-24.01;32.13;-13.77;52.94;28.44;86.5;7.88;12.03;-164.59;-26.2;184.1;-0.58;0.5;-1.83
2;130.9;80.28;8.65;219.65;149.68;1.84;-14.13;-278.14;-233.24;16.22;393.13;18.5;-3.03;252.7;-4.32;86.2;5.36;4.57;-145.68;-32.94;196.61;6.1;10.09;-7.21
2;-112.93;-46.29;8.61;95.99;75.01;-17.69;-19.23;-306.22;-163.46;7.11;-15.94;39.18;-13.25;58.17;10.62;96.96;8.41;13.79;-225.56;-26.31;192.8;4;1.16;-2.73
2;73.92;55.82;10.26;238.36;156.07;-8.48;-19.62;-300.56;-271.41;26.11;351.29;16.71;-3.73;218.22;12.15;92.48;7.34;6.2;-132.04;-32.96;237.25;7.63;8.82;-6.23
2;-131.66;-53.18;8.75;99.68;64.01;-21.25;-25.69;-290.76;-146.02;13.69;-19.87;46.09;-13.8;53.03;10.79;137.09;9.56;14.46;-380.84;-27.33;333.3;6.58;-0.04;-2.93
2;122.7;63.91;10.32;233.99;144.59;2.44;-13.05;-257.51;-213.63;9.52;397.38;18.15;-2.7;221.06;-8.77;57.63;4.85;4.58;-109.71;-33.94;108.59;7.16;9.99;-6.69
2;-122.45;-52.09;7.86;94.93;70.83;-15.83;-16.29;-293.95;-155.89;8.39;-23.58;36.99;-13.24;47.31;19;79.81;8.27;12.7;-137.92;-24.8;177.14;2.53;1.07;-2.43
2;91.5;62.48;10.4;233.42;147.53;-4.19;-14.91;-287.95;-219.52;10.73;361.38;17.39;-3.78;237.53;-10.53;63.9;6.97;5.56;-148.68;-33.63;93.03;5.49;9.19;-6.56
2;-124.73;-56.73;6.98;95.71;63.41;-18.22;-16.95;-283.87;-151.95;8.43;-27.49;40.86;-13.63;34.56;26.35;91.23;8.4;13.16;-198.42;-23.37;254.36;0.87;-0.05;-2.42
2;108.34;61.01;8.13;229.71;138.77;2.59;-10.94;-275.74;-220.09;8;375.35;20.1;-3.46;222.11;-20.71;49.47;4.49;5.42;-127.44;-20.61;52.93;5.1;9.88;-6.49
2;-112.71;-62.15;8.42;95.86;68.95;-21.58;-17.71;-302.95;-162.62;9.01;-23.44;35.91;-14.06;50.55;42.93;99.55;8.54;13.19;-175.29;-26.79;198.14;-0.22;0.49;-2.88
2;82.9;55.23;9.39;227.31;135.1;-7.24;-14.04;-295.48;-201.98;13.98;350.77;16.74;-3.37;214.22;-8.18;72.31;5.19;5.74;-134.84;-28.61;121.87;6.39;8.87;-6.24
2;-132.43;-54.77;8.82;102.4;76.48;-22.03;-19.75;-280.61;-166.24;10.8;-18.11;40.9;-13.96;70.82;30.55;103.9;8.46;13.25;-205.31;-29.45;272.55;2.37;0.16;-2.06
2;112.55;72.82;7.64;215.95;131.12;1.03;-11.65;-302.63;-188.85;15.08;362.36;22.19;-2.4;213.44;-19.96;81.88;4.88;6.13;-180.32;-25.53;117.99;7.38;9.96;-6.29
2;-115.74;-52.77;8.78;99.57;71.34;-24.56;-17.87;-295.7;-158.31;10.6;-7.81;45.15;-13.67;51.15;9.63;112.87;8.71;15.05;-249.01;-28.85;254.99;0.67;0.58;-2.25
2;83.17;62.14;9.04;236.93;148.35;-1.86;-13.78;-308.45;-245.73;17.77;364.72;19.17;-3.62;224.83;-1;76.79;6.19;5.35;-178.49;-28.21;128.3;6.54;9.06;-6.22
2;-129.86;-68.94;8.88;112.83;73.63;-23.04;-23.1;-307.69;-167.7;10.14;8.36;43.22;-13.46;49.18;13.04;111.3;9.37;14.08;-314.1;-27.51;269.69;6.67;0.51;-2.23
2;124.95;82.25;8.54;221.92;162.54;-6.61;-19.2;-302.52;-273.69;24.18;364.16;17.21;-2.64;246.14;-2.84;78;6.96;5.33;-172.07;-30.03;138.32;7.57;9.63;-7.1
2;-112.46;-59.82;9.74;95.91;71.7;-18.71;-26.8;-301.78;-169.21;8.38;-16.8;45.81;-13.69;51.38;18.14;137.85;10.08;15.03;-368.32;-27.82;333.99;7.44;-0.28;-3.41
2;77.88;60.87;8.97;230.63;155.47;-3.81;-17.58;-288.35;-234.19;13.62;347.76;22.53;-3.38;248.12;-8.91;66.29;6.5;5.81;-171.76;-27.07;79.19;6.13;9.63;-6.44
2;-138.39;-68.49;8.4;110.47;74.64;-22.39;-18.9;-297.67;-175.34;10.8;-8.44;39.07;-14.22;61.25;24.9;96.31;8.59;13.27;-211.36;-28.7;271.23;-1.54;0.47;-1.98
2;133.26;88.02;8;214.79;150.37;2.64;-18.9;-251.61;-235.8;14.13;361.94;20.51;-1.16;251.55;-13.81;62.7;5.5;4.73;-156.56;-25.21;109.61;6.62;10.88;-8.03
2;-110.6;-55.34;8.1;97.84;67.67;-20.94;-19.21;-305.43;-159.85;9.42;-17.61;43.18;-14.64;50.13;16.29;112.44;9.13;14.53;-238.6;-27.54;240.19;-4.07;-0.12;-2.41
2;78.37;58.6;10.49;243.22;150.54;-5.68;-16.49;-300.56;-223.34;13.06;365.33;18.87;-3.62;234.64;3.93;83.62;6.91;6.31;-169.09;-32.48;171.91;7.68;9.09;-6.58
2;-145.42;-64.14;7.75;115.17;71.38;-23.69;-19.11;-323.49;-174.35;9.43;-24.08;39.18;-14.43;50.88;19.79;121.4;8.93;14.1;-259.64;-25.88;281.48;-1.04;-0.28;-2.42
2;134.41;81.39;8.57;202.32;141.62;3;-15.43;-248.79;-206.87;8.12;351.99;21.14;-1.97;252.36;-10.88;74.1;4.26;4.95;-136.39;-30.91;164.28;7.1;11.01;-8.08
2;-131.61;-58.93;7.44;101.12;73.36;-22.26;-17.57;-312.14;-181.51;9.74;-38.34;34.7;-14.98;45.52;6.9;91.42;8.3;13.24;-167.61;-25.27;189.12;-3.37;-0.38;-1.31
2;89.05;55.85;10.35;236.9;156.02;-0.13;-14.77;-300.25;-207.94;7.48;386.23;18.2;-3.09;234.53;9;95.78;6.38;6.07;-147.27;-30.17;213.5;9.22;9.77;-7.24
2;-145.65;-65.55;7.94;102.89;72.82;-21.86;-19.2;-294.06;-169.6;9.37;-34.57;38.54;-15.35;54.31;26.9;82.73;8.47;13.33;-154.92;-28.47;203.82;-4.86;0.05;-1.62
2;123.4;83.83;6.89;210.87;154.22;2.46;-16.85;-271.1;-240.92;10.56;362.31;19.89;-0.96;250.74;-11.56;84.86;4.66;5.09;-195.09;-18.38;130.18;9.04;10.65;-7.92
2;-111.08;-57.18;9.85;108.29;70.7;-23.6;-20.57;-326.85;-172.74;10.03;3.97;40.39;-15.2;47.63;21.29;97.49;9.47;15.16;-210.84;-31.28;227.48;3.21;-0.25;-2.52
2;77.76;60.98;10.29;253.61;151.6;-9.04;-14.22;-317.26;-200.32;14.98;383.01;18.46;-2.68;234.13;-2.6;77.19;6.94;6.18;-170.75;-27.88;161.42;10.58;9.17;-6.73
2;-146.45;-70.23;8.18;119.06;72.42;-27.04;-19.77;-319.58;-178.55;11.21;-9.96;42.92;-14.98;40.43;15.72;107.44;9.22;14.82;-257.86;-28.74;256.72;-1.28;0.01;-1.47
2;126.26;78.61;9.19;228.54;155.91;-2.38;-15.21;-271.99;-183.19;11.84;395.48;21.87;-2.02;263.71;0.97;108.2;5.02;5.49;-169.25;-30.89;218.26;9.14;10.35;-7.51
2;-130.77;-54.83;8.57;100.57;71.92;-28.64;-17.51;-307.38;-165.96;9.4;-35.88;38.18;-15.29;42.39;20.81;94.56;9.14;15.6;-156.71;-27.79;189.84;0.83;0.11;-2.28
2;84.28;55.62;9.72;232.45;143.89;-5.9;-15.56;-291.36;-194.28;13.85;358.01;18.54;-2.7;216.7;-4.43;87.22;6.81;5.78;-199.09;-29.74;144.26;7.77;9.76;-6.43
2;-153.86;-60.28;6.64;95.85;68.93;-21.36;-17.22;-308.48;-162.94;10.4;-47.55;38.06;-15.08;48.07;9.75;85.56;8.14;13.54;-152.65;-27.57;206.77;-3.95;1.12;-2.45
2;168.4;103.77;8.32;186.81;141.22;0.93;-19.46;-218.27;-198.02;4.25;347.49;16.84;0.49;239.58;-8.44;96.09;4.5;5.09;-149.03;-34.64;199.98;7.46;10.16;-8.38
2;-115.92;-47.23;8.76;92.21;71.65;-21.07;-16.54;-296.99;-156.55;9.8;-23.39;32.84;-14.63;54.13;21.09;90.15;8.36;13.72;-140.38;-31.72;151.85;-0.88;0.33;-2.14
2;69.44;55.57;8.93;247.37;155.74;-4.93;-14.71;-296.36;-191.73;3.43;376.71;21.02;-3.79;261.54;-6.92;82.31;5.11;6.74;-145.13;-25.83;215.12;6.16;9.21;-6.9
2;-139.31;-62.22;8.03;106.28;73.09;-21.9;-18.74;-298.05;-158.86;8.34;-10.87;26.18;-14.55;69.1;29.65;74.91;7.8;12.27;-136.16;-30.13;129.06;-2.74;0.81;-2.42
2;127.65;81.22;8.14;217.89;147.22;4.12;-14.64;-245.64;-210.25;4.15;386.32;17.86;-1.59;252.78;-8.97;65.3;3.02;4.22;-132.99;-28.4;139.86;6.71;10.31;-7.54
2;-114.61;-46.87;8.34;98;70.96;-24.15;-17.28;-324.18;-171.05;11.02;-14.93;33.08;-14.22;51.15;17.43;102.09;8.72;14.07;-181.53;-26.24;169.51;-2.1;1.19;-2.67
2;80.16;57.79;9.9;257.08;160.33;-7.2;-13.89;-313.17;-212.91;15.94;397.62;17.33;-4.63;264.88;5.09;81.35;6.18;6.49;-125.46;-32.18;210.36;6.35;8.74;-5.86
2;-135.61;-55.89;8.1;109.5;74.66;-19.28;-19.05;-314.12;-162.51;10.94;-16.5;39.08;-13.36;45.86;11.45;103.44;9.03;13.58;-194.7;-25.4;245.82;4.13;0.92;-2.43
2;107.72;77.16;8.73;229.33;153.29;-10.05;-20.99;-292.91;-245.17;18;368.13;19.04;-2.81;253.83;0.08;67.66;6.5;5.41;-125.82;-28.04;177.05;8.17;10.21;-7.44
2;-134.45;-61.56;9.04;113.49;75.38;-24.45;-23.59;-329.31;-171.63;10.47;-11.29;45.08;-14.63;51.62;9.76;126.51;9.91;15.65;-308.07;-29.43;283.61;1.99;-0.18;-2.38
2;118.22;77.29;10.26;234.75;162.17;0.64;-15.94;-294.17;-236.22;21.99;394.37;18.6;-2.22;255.32;9.14;81.22;6.55;5.32;-147.82;-35.08;188.4;9.14;10.39;-7.66
2;-116.88;-52.35;9.07;93.84;64.55;-20.66;-20.31;-301.55;-152.08;14.31;-24.79;44.52;-14.1;44.56;4.94;128.73;10.13;15.32;-271.57;-28.02;268.08;2.67;0.41;-3.11
2;76.58;57.87;9.18;258.14;156.94;-6.5;-15.35;-295.59;-218.77;5.52;399.6;19.39;-3.51;249.73;9.18;93.56;5.33;6.29;-193.56;-30.42;204.67;6.86;8.82;-6.75
2;-150.43;-67.27;7.52;106.09;68.78;-20.55;-14.66;-317.94;-167.09;8.39;-34.81;36.63;-14.52;43.63;13.37;95.12;7.63;12.51;-180.58;-26.09;182.74;-0.3;1.23;-1.66
2;137.42;80.59;8.39;207.78;150.9;3.31;-14.6;-243.01;-223.73;6.44;384.36;20.39;-2.23;247.25;-2.22;94.42;4.07;4.69;-181.58;-29.91;169.53;6.65;10.26;-7.9
2;-120.49;-45.32;6.96;90.78;71.35;-18.14;-16.89;-304.54;-158.35;7.95;-31.98;37.22;-13.77;50.53;11.17;89.71;8.13;13.02;-150.39;-23.26;204.66;-3.35;0.59;-2.86
2;76.2;52.93;9.71;245.54;156.02;-3.89;-13.72;-300.76;-212.64;10.71;375.17;20.05;-4.05;246.02;-4.1;66.79;5.3;5.38;-131.59;-31.46;158;4.3;9.24;-6.46
2;-140.83;-64.66;8.31;114.75;72.4;-21.96;-17.04;-314.11;-165.32;8.58;-20.06;35.28;-14.31;64.05;31.11;101.61;8.43;13.32;-189.22;-28.53;181.6;0.69;0.86;-2.27
2;127.59;75.36;8.19;236.17;153.73;-0.95;-14.21;-274.63;-209.37;11.61;408.12;17.66;-2.86;252.32;-0.23;86.61;4.53;4.82;-146.51;-30.48;230.79;4.66;10.49;-6.85
2;-131.05;-51.7;7.86;101.56;74.42;-18.83;-17.59;-298.68;-151.45;9.65;-19.49;34.71;-13.45;59.71;17.7;86.14;8.39;12.85;-149.3;-26.94;166.7;1.59;0.71;-2.58
