label;gyro_z_avg;gyro_x_avg;acc_y_stdev;gyro_z_stdev;gyro_x_stdev;acc_x_min;acc_z_min;gyro_z_min;gyro_x_min;acc_z_max;gyro_z_max;acc_x_max;acc_y_avg;gyro_x_max;gyro_y_avg;gyro_y_stdev;acc_z_stdev;acc_x_stdev;gyro_y_min;acc_y_min;gyro_y_max;acc_y_max;acc_x_avg;acc_z_avg;stride_check
0;125.32;-73.91;3.39;183.97;66.05;-0.53;-8.56;-141.63;-151.01;4.35;326.37;13.12;-12.52;22.05;-21.55;102.01;2.98;3.53;-230.34;-17.65;109.48;-7.2;3.89;1.81;0
0;-89.01;18.08;6.49;32.5;10.95;-6.96;-7.65;-139.93;-21.27;13.4;-49.32;15.26;-13.37;29.17;-4.61;55.99;5.76;5.93;-101.66;-30.12;53.32;-9.12;2.2;0.19;1
0;13.43;-9.31;3.82;160.07;75.79;-9.43;-9.5;-162.01;-147.15;6.01;308.76;12.52;-10.35;95.28;2.24;85.08;3.05;5.1;-242.58;-18.44;157.54;-1.32;0.49;0.09;0
0;-50.12;17.5;5.01;110.88;51.05;-10.94;-6.72;-164.21;-112.54;13.22;317.26;11.36;-10.93;98.54;6.67;56.48;3.75;5.25;-123.1;-30.54;122.91;-0.24;-0.07;-0.16;1
0;176.18;-80.82;4.74;218.44;68.68;0.57;-3.47;-192.8;-152.92;4.57;377.43;10.19;-12.72;33.77;-8.13;81.7;2.09;2.61;-184.15;-23.96;115.58;-6.16;4.67;2.01;0
0;-92.74;14.08;5.53;43.18;12.96;-5.13;-17.33;-160.27;-2.63;9.54;-43.33;17.67;-11.69;44.36;-28.76;81.62;6.57;6.28;-177.09;-25.6;93.11;-3.46;3.74;-0.56;1
0;27.01;-3.51;4.49;181.06;78.44;-11.07;-8.21;-183.23;-150.12;7.48;352.16;14.16;-10.64;110.1;15.56;79.47;3.32;6.15;-189.3;-20.43;177.13;0.35;0.19;0.28;0
0;-81.41;27.22;4.23;54.65;37.86;-11.87;-7.59;-163.29;-70.45;9.98;98.15;17.03;-11.31;110.81;5.08;71.82;3.42;5.57;-216.23;-28.85;99.5;-1.2;-0.34;-1.02;1
0;193.58;-82.14;4.29;175.57;56.7;-2.93;0.74;-163.32;-150.78;5.2;364.76;9.79;-10.49;33.22;-8.23;76.53;1.3;3.5;-213.14;-20.3;106.86;-4.28;3.47;2.62;0
0;-103.42;36.58;3.96;46.95;36.64;-12.59;-8.8;-190.76;-29.02;4.97;-41.22;11.91;-12.28;111.19;12.38;65.32;2.63;6.14;-234.67;-28.49;82.51;-6.39;-1.73;-1.17;1
0;102.78;-43.31;5.83;194.93;70.77;-6.17;-9.64;-185.1;-139.26;7.56;361.49;12.69;-9.68;74.54;-7.58;85.61;3.78;4.98;-184.66;-18.08;147.06;1.09;3.24;1.05;0
0;-98.07;35.51;3.42;42.28;35.26;-10.92;-10.25;-178.44;-29.7;9.58;-34.87;19.43;-12.14;107.78;18.06;61.39;3.56;6.75;-164.63;-25.85;83.25;-6.89;-1.6;-1.2;1
0;100.32;-43.08;6.26;204.41;70.75;-7.38;-6.26;-190.6;-135.15;6.76;394.1;12.36;-9.54;72.26;-23.08;76.63;3.39;4.73;-220.19;-22.61;103.06;0.86;3.33;1.02;0
0;-103.03;37.33;3.76;48.74;35.15;-11.87;-4.76;-189.56;-5.18;8.57;-44.03;14.35;-12.26;108.16;23.18;44.55;2.69;6.61;-97.78;-27.03;82.97;-5.1;-1.16;-0.6;1
0;103.82;-45.36;6.33;196.48;72.5;-7.28;-7.48;-186.3;-143.81;7.34;371.86;11.4;-9.85;69.47;-13.46;77.08;3.59;4.78;-154.21;-20.07;126.02;1.69;3.57;1.24;0
0;-102.08;39.14;3.66;39.62;33.38;-11.38;-7.87;-171.17;-7.39;8.99;-45.11;18.17;-12.07;108.68;23.13;63.62;3.27;6.65;-159.14;-25.5;88.18;-3.93;-1.41;-0.66;1
0;97.21;-47.83;6.19;213.87;81.2;-11.21;-8.86;-210.27;-169.53;6.97;406.52;10.79;-10.36;85.91;-20.24;90.15;3.85;5.2;-204.78;-21.81;128.91;0.71;3.28;0.65;0
0;-109.3;41.26;4.61;47.69;34.31;-25.63;-5.18;-198.9;-7.2;13.29;-50.45;17.21;-12.62;104.54;26;66.2;4.43;8.63;-128.37;-29.75;101.41;-4.53;-2.13;0.08;1
0;69.65;-40.12;7.51;195.98;78.48;-11.14;-8.75;-181.44;-167.74;11.74;358.87;10.54;-11.32;77.82;-22.13;82.72;4.42;4.59;-257.43;-35.17;128.67;-0.75;3.14;1.59;0
0;-99.05;40.53;2.8;44.28;37.35;-12.78;-9.45;-180.29;3.79;5.48;-47.34;22.41;-11.22;108.17;29.34;57.53;3.1;8.27;-114.82;-16.12;103.99;-3.73;-1.83;-1.61;1
0;100.43;-50.58;6.01;196.66;73.57;-8.5;-8.54;-206.89;-154.12;7;351.4;10.75;-10.53;60.26;-13.21;103.7;3.76;4.25;-258.03;-21.62;159.57;-0.63;3.52;1.35;0
0;-106.19;45.22;3.96;47.69;32.77;-14.08;-8.27;-187.11;8.02;9.48;-48.96;10.15;-12.05;111.59;24.41;61.61;3.54;6.74;-82.62;-27.3;87.53;-3.06;-1.23;-0.94;1
0;100.2;-49.47;6.83;206.23;72.69;-12.66;-8.63;-200.28;-156.32;6.82;378.33;13.18;-10.63;77.43;-20.04;93.59;4;4.87;-242.46;-26.83;121.83;-2.59;4.05;1.36;0
0;-105.82;50.1;4.91;54.47;34.36;-15.58;-8.91;-209.05;1.92;10.26;-28.7;18.48;-12.06;107.67;24.96;64.28;4.04;7.78;-89.51;-33.13;91.09;-2.45;-1.99;-1.2;1
0;102.27;-44.74;9.08;219.95;79.15;-14.5;-8.17;-182.27;-157.41;13.2;421.38;25.91;-11.01;76.69;-17.48;124.3;4.62;7.02;-285.23;-36.11;148.29;1.07;5.28;1.52;0
0;-104.05;52.58;3.37;39.67;30.02;-12.5;-8.1;-199.14;16.85;16.9;-46.13;20.86;-11.3;106.32;19.64;73.62;4.28;7.87;-161.04;-28;140.24;-6.22;-2.82;-1.14;1
0;96.55;-50.78;6.84;197.9;74.49;-12.41;-8.21;-187.44;-159.29;6.07;346.12;14.14;-10.78;76.18;-22.2;115.76;3.87;6.04;-234.77;-29.31;107.9;1.76;4.02;0.96;0
0;-110.68;47.97;5.02;42.78;31.71;-12.64;-8.74;-190.73;6.98;15.03;-50.41;19.19;-12.01;117.23;19.67;65.82;4.79;7.08;-142.47;-34.06;92.95;-3.87;-2.29;-0.87;1
0;105.63;-44.71;5.65;209.32;72.79;-11.66;-7.53;-175.89;-137.63;5.67;391.36;13.66;-10.59;80.32;-18.51;93.85;3.87;5.22;-203.2;-21.61;135.37;-0.42;4.19;1.18;0
0;-111.08;36.88;5.39;43.98;31.71;-12.85;-8.54;-188.38;-9.3;13.08;-57.81;14.74;-12.52;100.12;21.2;58.03;4.33;6.3;-90.67;-33.84;99.07;-4.99;-1.31;-0.2;1
0;107.75;-56.5;6.56;207.64;84.17;-10.86;-8.88;-173.19;-170.93;6.85;385.48;10.86;-10.2;74.31;0.29;89.28;4.24;5.09;-232.73;-22.55;153.72;-0.26;3.03;1.48;0
0;-106.45;42.91;5.96;47.15;41.13;-15.67;-8.93;-194.55;-39.6;12.8;-40.99;22.37;-12.83;121.78;16.3;93.03;4.36;7.92;-290.71;-36.93;121.14;-4.82;-1.46;-1.41;1
0;118.3;-49.79;7.21;215.35;78.69;-11.2;-8.32;-185.03;-153.47;5.03;427.12;12.71;-10.14;66.9;-24.38;87.72;3.85;5.04;-230.1;-26.2;126.34;0.21;3.75;1.14;0
0;-110.73;48.7;5.52;47.9;39.95;-14.67;-9.43;-194.92;-26.21;13.19;-42.2;23.84;-13.09;128.12;20.79;58.58;4.47;7.97;-186.96;-35.35;92.14;-5.51;-1.71;-0.98;1
0;105.18;-69.24;6.86;207.69;86.56;-7.57;-8.45;-182.73;-169.83;5.93;390.03;13.54;-10.04;61.83;-29.74;104.89;3.94;5.02;-258.41;-21.57;166.42;0.93;3.41;1.24;0
0;-115.42;44.92;5.81;49.38;35.7;-13.74;-5.61;-205.82;-24.83;13.6;-46.45;21.46;-12.77;114.78;19.48;58.27;4.23;7.78;-120.18;-35.24;68.86;-3.9;-1.86;-0.54;1
0;105.25;-59.79;5.47;196.58;82.69;-8.75;-6.9;-196.69;-152.11;7.41;340.48;11.29;-10.54;68.45;-7.59;106.54;4.1;5.38;-300.63;-19.18;166.46;0.45;3.03;1.36;0
0;-111.71;43.25;6.09;51.23;41.52;-15.24;-9.53;-206.22;-36.23;12.06;-42.72;24.17;-13.05;125.6;15.66;74.46;4.67;8.48;-253.03;-35.84;122.48;-2.04;-1.78;-0.85;1
0;114.51;-54.03;7.08;202.45;84.26;-9.43;-8;-179.09;-163.54;6.36;398.14;17.26;-10.05;75.98;-25.27;108.97;4.06;6.77;-230.37;-23.52;177.13;1.33;4.55;1.35;0
0;-113.37;39.13;5.2;40.73;41.85;-13.76;-12.14;-187.78;-31.96;16.24;-49.32;21.94;-12.99;121.03;25.87;61.46;5.27;7.92;-158.44;-34.3;97.09;-7.57;-2.74;-0.96;1
0;105.35;-57.13;7.03;204.07;87.13;-10.45;-8.67;-199.54;-180.93;6.85;369.76;12.14;-9.84;66.95;-7.43;122.01;3.98;5.58;-278.81;-20.41;203.05;3.11;3.51;0.99;0
0;-111.76;47.31;4.68;50.51;40.06;-14.91;-8.58;-205.06;-26.83;12.71;-44.11;15.93;-12.84;125.18;19.84;78.75;4.46;8.35;-253.51;-31.73;122.58;-5.97;-2.23;-1.15;1
0;115.14;-62.94;7.9;220.7;95.33;-9.83;-7.54;-195.27;-183.37;6.02;405.79;13.21;-9.99;73.23;-19.87;112.4;3.93;5.89;-210.73;-26.07;163.62;2.41;3.64;1.25;0
0;-110.66;37.41;6.09;48.64;34.98;-12.1;-4.91;-215.98;-12.31;11.79;-52.86;16.06;-12.84;110.74;19.56;61.16;3.49;6.65;-215.72;-35.67;89.45;-1.26;0.15;-0.26;1
0;101.67;-51.51;5.25;195.69;79.33;-12.02;-8.05;-174.86;-168.22;5.28;374.86;13.87;-10.09;81.2;-10.68;113.42;4.05;6.31;-263.38;-20.15;228.8;-2.19;2.8;0.89;0
0;-112.49;41.12;5.94;47.75;42.79;-16.9;-8.42;-203.13;-35.68;14.71;-47.35;27.53;-13.01;125.39;12.06;92.74;4.78;9.5;-211.38;-35.2;126.92;-2.32;-1.87;-0.94;1
0;107.91;-57.23;7.35;211.92;85.79;-12.88;-8.26;-198.36;-177.1;6.58;385.47;11.4;-10.14;72.73;-13.05;108.88;4.21;5.61;-248.19;-23.94;192.41;0.9;3.47;1.27;0
0;-111.39;46.86;4.93;44.24;33.03;-14.23;-6.76;-188.24;-18.31;12.84;-54.49;16.64;-12.59;115.82;18.44;46.8;3.85;7.44;-134.27;-32.22;100.46;-6.05;-1.31;-0.31;1
0;105.12;-60.86;5.96;200.17;91.37;-11.74;-6.9;-178.71;-172.44;7.75;380.06;10.82;-10.04;76.45;-20.25;102.07;3.97;5.6;-262.44;-21.01;125.02;-0.24;3.42;1.43;0
0;-111.87;37.56;6.15;47.84;37.67;-15.77;-11.52;-218.31;-38.77;15.81;-46.19;20.86;-12.92;117.45;13.86;85.65;5.15;8.45;-216.67;-36.44;144.57;-2.9;-1.82;-0.83;1
0;112.47;-47.22;5.55;203.69;68.5;-13.58;-6.81;-198.45;-131.55;7.23;380.68;14.28;-10.68;73.87;-10.34;111.29;4.17;6.81;-241.5;-21.42;193.79;-1.25;4.17;1.07;0
0;-106.4;49.09;5.83;46.24;37.6;-17.59;-10.1;-196.74;-21.45;14.59;-48.78;22.41;-12.65;118.96;26.08;62.78;5.21;8.82;-104.49;-33.92;132.56;-2.08;-2.21;-1.13;1
0;112.27;-45.94;8.32;238.58;87.16;-14.67;-8.47;-215.35;-189.69;6.04;474.8;15.82;-9.7;88.44;-15.63;128.93;4.23;6.81;-202.72;-30.02;203.49;0.38;3.77;0.65;0
0;-108.19;49.24;6.05;53.44;38.11;-16.22;-8.85;-210.3;-30.18;12.72;-33.54;18.85;-13.13;126.96;14;63.22;4.18;8.74;-121.79;-35.78;107.63;-4.35;-2.13;-0.89;1
0;118.05;-50.65;7.73;225.2;87.64;-9.63;-7.81;-194.91;-177.71;5.64;439.63;12.92;-9.54;70.68;0.22;113.69;3.95;5.65;-260.7;-27.35;159.22;1.82;3.72;1.08;0
0;-116.9;44.04;6.2;52.6;40.03;-21.4;-8.18;-206.35;-34.38;12.35;-47.04;23.05;-13.45;126.5;-1.28;84.38;4.27;9.06;-246.35;-34.41;81.44;-3.42;-2.53;-1.11;1
0;134.59;-54.36;8.13;227.44;95.51;-2.38;-8.65;-225;-179.88;5.59;434.61;13.77;-9.41;81.19;-1.74;115.02;3.26;4.81;-244.72;-28.41;184.6;1.02;4.92;1.86;0
0;-110.7;39.47;6.09;51.8;45.59;-16.84;-10.87;-206.44;-71.72;10.49;-39.63;21.99;-13.25;121.21;20.12;83.14;4.62;8.78;-208.12;-35.55;118.17;-5.78;-2.71;-1.45;1
0;125.61;-49.9;7.95;219.67;84.58;-8.51;-8.51;-203.46;-180.01;6.77;431.58;14.15;-9.77;58.9;-14.88;125.59;4.17;5.85;-207.69;-27.71;198.19;1.89;5.09;1.08;0
0;-110.7;42.43;5.73;44.83;37.93;-15.88;-8.3;-192.31;-39.34;16.39;-50.7;16.62;-12.99;118.16;17.12;53.13;5.33;7.63;-157.31;-35.28;114.65;-6.28;-2.36;-0.57;1
0;114.82;-59.26;7.22;217.33;89.31;-13.82;-9.33;-201.05;-209.39;9.64;418.87;14.8;-10.09;68.58;-6.78;160.51;4.84;7.37;-256.6;-26.56;262.11;0.07;3.78;0.79;0
0;-117.77;47.51;5.51;52.54;42.27;-22.35;-9.91;-219.97;-26.28;15.62;-43.12;25.66;-13.42;135.47;15.34;81.03;5.29;10.19;-188.89;-34.12;119.7;-3.91;-2.52;-0.73;1
0;118.28;-59.33;7.31;220.83;93.44;-10.45;-9.76;-207.18;-181.56;8.3;408.66;15.38;-10.36;77.23;-18.42;87.24;4.31;5.47;-168.19;-25.48;114.48;1.19;4.35;1.27;0
0;-111.67;40.65;6.43;49.96;34.94;-15.05;-9.37;-223.7;-22.88;13.29;-54.36;21.38;-12.67;112.76;15.39;60.55;4.41;8.28;-150.12;-36.31;96.55;1.3;-1.35;-0.09;1
0;121.18;-37.75;9.18;239.76;88.82;-8.97;-9.47;-205.54;-192.76;5.64;466.37;17.21;-10.58;68.23;-13.37;109.02;4.55;6.74;-166.99;-31.42;176.35;2.73;4.09;0.28;0
0;-113.15;42.59;5.56;44.94;36.27;-14.9;-5.83;-192.9;-20.91;12.27;-51.31;18.78;-12.83;118.09;16.65;61.69;4.1;7.28;-170.17;-33.18;133.51;-4.46;-2.39;-0.36;1
0;114.09;-59.63;7.56;221.91;87.31;-7.4;-8;-192.48;-195.59;6.41;413.97;12.57;-10.07;54.39;-7.3;94.01;3.76;5.01;-227.29;-23.78;125.65;1.59;3.39;1.03;0
0;-112.9;48.26;5.63;48.19;40.01;-15.58;-8.16;-204.43;-39.9;15.19;-46.41;16.04;-13;120.48;15.89;56.2;4.84;7.55;-207.36;-34.3;84.1;-4.88;-2.07;-0.9;1
0;117.82;-44.94;6.01;215.53;79.58;-13.01;-8.43;-198.75;-168.69;7.21;407.45;11.62;-10.77;79.41;-19.78;94.5;4.43;5.66;-191.21;-23.64;140.17;-3.75;4.02;0.98;0
0;-116.52;42.69;5.72;51.3;37.02;-14.03;-6.76;-216.94;-19.39;11.08;-59.53;15.04;-12.86;113.49;20.06;48.08;3.88;7.59;-93.26;-33.95;97.41;-1.01;-1.43;-0.26;1
0;117.62;-60.63;7.74;222.1;90.14;-12.26;-6.64;-202.95;-181.75;6.53;435.69;18.91;-10.93;78.23;-11.35;100.62;4.42;7.27;-198.46;-29.68;180.64;-0.55;3.84;1.44;0
0;-120.97;43.58;5.14;50.7;39.09;-17.21;-8.96;-212.39;-8.42;12.05;-62.6;19.42;-13.18;123.46;9.97;68.18;4.41;9.69;-157.82;-29.8;91.05;-4.01;-2.57;-0.69;1
0;123.93;-65.77;7.18;219.31;93.92;-11.77;-7.79;-208.29;-175.94;6.58;403.99;9.04;-10.15;76.02;-3.78;91.61;4.06;4.92;-213.33;-26.59;146.82;-1.99;3.73;1.72;0
0;-115.96;42.29;5.98;61.05;40.07;-15.93;-7.97;-219.39;-21.03;14.8;-38.74;23.42;-12.55;124.54;15.58;77.29;4.52;9.53;-187.33;-33.76;102.11;-0.74;-0.76;-0.57;1
0;105.67;-41.92;6.99;224.28;88.87;-18.57;-7.86;-213.47;-153.6;5.5;419.64;14.58;-10.4;117.01;-14.39;82.3;4.15;6.85;-227.78;-24.88;113.69;-1.28;2.85;0.79;0
0;-112.76;44.33;5.74;60.46;43.13;-16.9;-9.85;-236.91;-31.7;11.82;-37.31;16.46;-13.12;126.86;12.02;86.93;4.52;9.42;-181.84;-33.19;130.15;-0.02;-1.61;-1.12;1
0;119.44;-55.22;7.68;222.39;80.89;-7.96;-7.78;-209.89;-157.26;7.11;453.66;13.81;-9.95;51.8;-20.22;132.63;4;6.77;-275.97;-28.86;194.05;-0.37;4.59;1.45;0
0;-109.78;44.95;5.45;46.32;38.76;-14.46;-6.46;-193.25;-2.16;11.48;-47.53;20.95;-12.42;118.93;21.82;68.25;3.86;8.62;-185.7;-32.19;104.99;-0.04;-1.5;-0.46;1
0;103.15;-56.93;6.4;204.41;83.1;-14.04;-6.96;-198.35;-172.11;7.68;400.34;11.76;-10.26;98.02;-14.37;114.27;4.01;6.54;-227.05;-24.32;165.37;-0.63;3.36;0.86;0
0;-118.48;51.59;5.23;54.78;39.19;-18.5;-8.58;-225.61;-24.78;13.49;-36.15;20.29;-13.06;132.04;21.15;74.16;4.83;8.85;-181.88;-30.67;123.41;-4.46;-2.78;-1.41;1
0;127.15;-46.21;9.87;247.45;94.32;-10.23;-8.37;-225.83;-180.11;6.05;486.58;11.91;-9.47;84.76;-3.17;102.7;4.18;5.96;-181.17;-31.76;158.83;2.53;4.6;1.24;0
0;-113.69;43.55;5.67;51.8;45.25;-21.97;-8.86;-228.05;-61.72;11.19;-40.67;23.31;-13.07;126.34;9.15;85.71;4.31;10.42;-176.91;-34.91;123.73;-6.63;-2.31;-1.31;1
0;109.81;-49.46;8.67;221.93;89.98;-10.61;-7.95;-240.51;-197.39;6.41;392.47;16.22;-10.33;76.98;-22.2;119.77;3.88;5.92;-215.62;-27.59;204.62;0.83;4.33;1.15;0
0;-113.2;42.24;4.56;54.8;41.41;-18.17;-8.72;-207.66;-8.07;9.49;-35.55;23.72;-12.51;119.16;26.04;65.07;3.79;10.13;-136.66;-29.19;119.03;-3.15;-2.08;-1.3;1
0;121.75;-54.75;8.63;226.25;85.12;-11.23;-8.08;-208.07;-178.87;6.64;447.81;12.2;-9.34;61.21;-6.73;115.61;4.36;5.92;-208.59;-29.5;171.27;1.57;4.52;1.26;0
0;-111.97;42.02;5.46;52.81;37.52;-15.88;-7.2;-208.5;-29.97;11.75;-37.03;19.86;-12.88;115.85;14.19;69.64;3.91;9.26;-148.89;-32.29;105.7;-3.24;-1.95;-0.78;1
0;116.82;-51.07;7.52;222.23;85.12;-11.89;-7.96;-198.56;-170.24;5.3;433.36;14.54;-9.92;76.01;-9.98;93.79;3.8;6.09;-193.37;-28.64;148.71;-0.5;4.47;1.15;0
0;-112.36;39.66;6.58;52.87;37.51;-18.59;-9.12;-219.16;-33.63;17.6;-39.63;17.28;-13.53;114.53;13.32;52.07;5.86;8.37;-104.9;-35.31;95.26;-1.96;-1.43;0.42;1
0;113.76;-58.07;7.01;215.66;81.18;-10.86;-8.36;-208.97;-173.1;6.15;417.12;16.43;-10.37;64.31;-11.35;102.51;3.93;6.61;-156.36;-27.54;191.63;-1.83;4.21;1.2;0
0;-118.45;41.03;5.64;55.48;39.35;-19.54;-8.68;-235.89;-12.1;10.48;-53.35;20.79;-13.26;115.06;21;80.43;4.02;10.67;-166.6;-31.42;121.07;-1.18;-2.32;-1.07;1
0;115.13;-61.85;7.72;225.31;96.78;-12.4;-11.23;-224.05;-175.42;9.37;424.22;16.03;-10.18;77.93;-14.58;113.23;4.73;6.42;-201.53;-22.99;170.68;1.66;4.29;1.28;0
0;-112.23;50.2;5.6;54.12;43.62;-24.93;-8.31;-200.8;-10.77;14.23;-50.38;21.21;-12.74;136.6;20.98;82.05;4.74;9.89;-220.76;-32.56;108;-0.98;-2.66;-0.01;1
0;110.99;-50.28;8.41;216.57;97.95;-13.87;-10.2;-201.07;-179.99;5.22;416.64;15;-9.88;104.31;-1.8;114.08;4.34;7.02;-214.3;-28.9;177.72;1.78;3.57;0.57;0
0;-112.48;50.38;5.61;55.59;39.16;-16.79;-6.93;-215.97;-38.98;11.92;-38.21;27.73;-13.39;121.39;5.01;69.23;4.7;9.71;-183.66;-35.62;71.14;-6.08;-1.48;-0.41;1
0;124.06;-53.66;8.48;230.25;100.15;-4.51;-8.26;-225.82;-182.42;6.18;436.91;13.83;-9.72;79.25;-5.23;91.2;3.57;5.26;-208.99;-27.3;122.51;2.66;4.48;1.21;0
0;-110.55;40.72;6.01;51;39.69;-14.47;-11.66;-220.76;-52.99;13.64;-39.41;23.1;-12.87;113.67;8.23;70.12;4.36;7.99;-188.2;-37.01;84.81;-3.57;-2.2;-0.61;1
0;123.62;-39.11;8.94;235.65;80.75;-11.67;-8.92;-191.92;-164.73;5.51;466.68;20.26;-10.59;75.38;-5.81;71.31;3.8;6.64;-137.16;-30.71;118.86;1.88;4.55;0.89;0
0;-119.64;38.61;5.12;50.87;34.15;-20.49;-5.43;-216.32;-19.55;10.34;-49.38;17.76;-12.59;103.01;5.07;48.88;3.49;8.66;-144.97;-31.4;60.71;-3.9;-2.31;-0.45;1
0;124.52;-39.87;8.76;231.07;78.77;-15.72;-6.47;-203.97;-161.94;5.66;448.54;17.44;-10.43;65.05;5.88;68.27;3.49;6;-100.5;-29.63;111.58;0.99;4.55;1.08;0
0;-119.55;43.6;5.94;58.62;35.98;-20.35;-5.84;-229.08;-6.22;10.04;-47.53;20.85;-12.65;113.27;11.2;56.09;3.33;9;-149.07;-33.59;80.65;0.34;-1.89;-0.59;1
0;124.5;-41.41;9.49;234.79;81.82;-10.54;-7.68;-215.55;-156.99;5.51;442.9;13.74;-10.17;81.23;-5.29;67.79;3.66;5.42;-100.23;-29.9;124.61;3.64;4.24;0.77;0
0;-107.99;41.81;5.41;57.24;39.41;-18.59;-6.39;-204.11;-9.02;9.31;-36.19;20.94;-12.67;122.58;22.74;61.84;3.18;9.3;-172.53;-31.51;86.55;-2.18;-1.27;0.04;1
0;109.82;-47.64;8.01;238.71;86.74;-20.21;-8.21;-217.38;-157.22;6.12;467.58;12.34;-10.79;105.96;-15.96;89.72;4.38;6.75;-213.56;-29.16;158.69;0.48;3.15;0.97;0
0;-118.2;42.44;5.42;54.44;39.23;-16.19;-6.68;-218.13;-15.72;9.92;-53.66;18.7;-12.77;115.93;15.52;68.2;3.49;9.49;-167.09;-31.5;92.12;-1.08;-2.03;-0.47;1
0;108.28;-54.2;7.31;216.32;89.46;-13.07;-6.97;-202.94;-169.24;5.18;413.28;12.59;-10.28;80.27;-12.4;94.79;3.81;5.26;-215.28;-24.01;142.66;-0.3;4.04;1.23;0
0;-118.35;41.77;5.23;59.52;45.09;-20.4;-8.92;-217.08;-15.67;11.5;-37.47;17.98;-13.21;123.46;13.85;86.99;4.24;10.04;-219.81;-31.3;123.29;-4.46;-2.74;-0.67;1
0;129.17;-48.72;8.41;218.66;80.39;-8.08;-7.94;-209.49;-153.02;6.04;422.38;15.13;-9.67;62.35;-5.66;95.42;3.9;5.96;-194.19;-26.76;165.91;0.79;4.73;1.41;0
0;-109.79;45.02;5.1;63.81;41.58;-18.67;-8.45;-244.59;-10.97;8.94;-33.04;27.52;-12.59;129.73;23.12;70.84;3.31;10.1;-148.04;-29.36;122.94;-1.43;-1.42;-0.68;1
0;108.54;-55.06;7.52;209.3;86.47;-14.88;-7.57;-208.19;-155.47;4.76;383.13;12.69;-10.08;88.67;-17.35;110.22;3.34;5.77;-206.1;-22.09;202.68;1.03;4.05;1;0
0;-115.75;42.54;5.42;57.63;40.92;-18.11;-7.71;-211.97;-19.74;9.41;-36.02;21.36;-13.04;119.22;13.38;75.1;3.72;9.71;-196.76;-31.9;116.81;-1.45;-2.31;-0.99;1
0;136.77;-49.68;7.95;237.88;84.08;-4.54;-7.71;-216.01;-161.54;5.33;482.55;14.01;-9.81;71.53;-3.79;71.42;3.68;4.8;-190.18;-27.74;97.66;-0.41;4.38;1.68;0
0;-116.58;42.89;6.09;62.16;42.49;-17.71;-10.81;-235.55;-18.88;8.48;-34.85;18.75;-12.91;120.88;11.03;77.83;3.98;9.43;-228.99;-33.81;101.25;1.3;-1.96;-0.75;1
0;121.02;-47.61;8.4;222.81;87.06;-12.24;-8.32;-202.91;-165.35;5.99;439.09;15.98;-9.29;67.3;-7.64;111.82;3.82;6.63;-214.82;-26.65;154.77;2.59;4.08;1.19;0
0;-123.31;49.72;6.24;65.08;40.67;-19.23;-8.45;-232.97;-39.4;9.65;-21.91;28.82;-13.62;128.39;9.61;77.67;4.32;10.67;-168.31;-33.93;117.25;-1.74;-2.44;-1.4;1
0;130.93;-61.24;7.71;210.05;86.67;-10.13;-7.08;-219.68;-179.54;5.76;405.42;15.51;-10.21;77.94;-4.02;77.19;3.51;5.87;-159.41;-27.74;125.37;-0.5;4.46;1.88;0
0;-115.1;51.3;5.78;57.62;35.87;-14.61;-6.55;-230.68;3.08;8.14;-40.36;20.44;-12.44;119.76;15.26;56.64;3.8;8.45;-111.39;-32.53;95.14;0.94;-1.96;-0.77;1
0;124.46;-36.72;8.99;229.42;85.92;-11.45;-8.41;-215.89;-165.78;5.17;443.13;11.68;-10.34;76.74;-5.65;86.28;3.92;5.36;-190.99;-27.24;126.72;2.81;4.47;0.9;0
0;-116.23;48.17;5.6;60.07;40.54;-20.34;-9.65;-226.23;-2.03;7.36;-41.74;26.58;-12.64;131.1;16.29;71.33;3.73;11.3;-196.3;-32.31;89.6;-0.61;-2;-1.08;1
0;128.34;-34.82;7.54;229.23;68.74;-13.27;-7.64;-225.66;-112.42;4.76;437.8;11;-10.01;90.74;-7.06;91.43;3.79;6.02;-194.43;-23.63;122.64;-0.9;4.68;1.28;0
0;-113.87;46.54;6.65;59.93;37.99;-17.14;-8.85;-247.68;-17.74;10.32;-51.5;22.92;-12.93;126.41;16.72;60.98;3.37;9.38;-129.43;-33.32;88.75;3.55;-1.34;-0.41;1
0;117.76;-51.33;7.52;223.08;87.28;-14.64;-8.46;-200.18;-160.47;6.41;441.89;12.5;-10.19;87.43;-14.37;88.95;4.26;5.93;-184.14;-24.37;124.75;0.14;4.09;1.21;0
0;-115.73;47.72;6.13;59.31;40.94;-19.28;-7.59;-221.18;-28.51;10.5;-43.3;17.79;-13.23;124.13;11.86;67.17;3.86;8.86;-171.66;-33.48;86.99;0.65;-2.29;-0.95;1
0;127.47;-53.09;8.12;215.34;86.44;-0.88;-10.77;-214.68;-168.97;5.66;414;22.41;-10.01;67.61;-17.6;102.35;4.06;5.74;-228.48;-25.85;156.61;1.37;5.3;1.14;0
0;-117.33;43.68;5.59;58.5;35.04;-17;-6.1;-227.05;-1.47;8.43;-51.77;21;-12.59;107.36;21.96;67.11;3.67;9.45;-195.89;-31.77;137.08;-0.48;-2.24;-0.26;1
0;124.57;-35.96;7.82;228.63;80.37;-10.87;-7.67;-224.58;-155.29;4.35;426.5;10.11;-10.05;76.5;-1.14;82.99;3.63;5.24;-154.06;-24.03;140.79;-0.37;4.35;0.89;0
0;-120.98;45.59;5.53;63.99;42.56;-20.38;-8.55;-233.87;-24.92;7.97;-38.66;19.44;-13.35;125.93;8.37;81.47;3.71;9.83;-229.81;-32.2;90.84;-3.18;-2.43;-1.05;1
0;124.88;-56.6;7.43;211.85;86.5;-10.46;-9.33;-216.54;-174.56;4.95;416.94;14.62;-9.59;65.98;-11.02;87.87;3.92;6.02;-183.68;-22.57;145.14;0.24;4.66;1.37;0
0;-113.58;42.17;7.07;65.13;42.67;-16.53;-6.31;-253.3;-20.99;11.53;-38.5;24.86;-12.78;120.81;20.64;61.94;3.86;9.56;-125.5;-34.37;117.14;5.97;-1.62;-0.51;1
0;113.67;-52.62;7.14;212.62;86.15;-12.69;-7.86;-207.66;-172.13;3.98;405.61;16.59;-10.05;86.01;-15.41;109.67;3.5;6.69;-190.42;-22.25;188.26;-1.11;4.23;1.15;0
2;-128.83;53.22;6.76;112.18;52.18;-13.05;-5.72;-297.03;-13.51;35.16;25.08;34.19;-12.27;151.1;38.72;96.9;8.24;10.78;-274.43;-28.04;143.73;4.86;1.17;0.87;1
2;114.91;-55.79;6.92;227.42;96.49;-5.28;-27.51;-340.93;-178.61;8.98;421.29;21.45;-5.49;114.38;-28.73;108.73;6.97;6.33;-241.84;-22.65;178.13;6.69;7.41;1.06;1
2;-71.34;34.08;6.67;90.66;30.45;-14.14;-6.11;-225.42;-4.36;29.05;62.01;33.91;-11.23;85.66;30.55;85.3;7.66;10.86;-204.98;-24.54;133.99;-2.06;0.99;1.09;1
2;55.58;-34.73;5.69;209.8;91.14;-3.16;-30.16;-393.67;-151.52;9.61;328.64;25.29;-8.17;122.46;-18.17;52.41;7.32;5.78;-174.2;-28.44;62.2;-1.09;6.5;0.91;1
2;-99.91;51.61;5.54;134.8;50.84;-16.79;-12.09;-307.31;-8.23;32.51;84.16;35.35;-11.4;155.01;27.26;117.91;8.87;11.62;-267.08;-21.07;148.26;-0.23;1.18;0.33;1
2;92.96;-27.27;9.58;269.86;107.19;-13;-23.14;-322.86;-202.77;8.18;452.49;20.94;-7.69;154.65;-28.43;124.28;7.31;8.53;-296.64;-36.03;235.57;5.26;5.99;0.27;1
2;-93.67;34.07;7.55;116.55;47.81;-13.87;-10.28;-264.1;-22.65;16.53;80.37;25.1;-9.88;127.22;39.1;91.04;5.34;10.41;-175.55;-21.88;172.23;5.04;0.93;0.07;1
2;86.41;-42.94;6.6;221.68;94.96;-8.84;-15.24;-384.03;-173.34;10.31;357.79;24.06;-9.24;129.08;-21.93;78.87;6.64;7.1;-150.52;-30.41;183.97;1.35;6.48;1.12;1
2;-127.48;52.67;6.71;140.62;56.05;-12.88;-7.97;-344.74;-7.98;16.88;60.11;23.86;-11.71;152.99;35.78;78.84;5.29;10.37;-165.17;-24.15;137.82;5.09;2.28;0;1
2;101.89;-37.45;9.27;258.59;112.24;-2.79;-25.12;-359.88;-190.53;14.56;439.27;19.82;-6.79;144.72;-27.15;93.63;7.67;5.41;-186.74;-34.38;160.96;8.82;5.94;1.44;1
2;-90.53;37.68;8.39;100;42.79;-17.21;-5.78;-228.26;-14.53;24.55;46.04;27.41;-10.39;123.06;33.77;74.5;5.63;10.99;-163.56;-26.31;147.96;3.78;1.5;0.52;1
2;71.39;-31.31;4.82;203.94;76.98;-2.36;-27.27;-314.9;-134.08;7.81;339.76;20.92;-7.81;123.46;-19.96;77.09;6.53;5.19;-239.8;-26.24;102.95;-1.94;7.19;0.92;1
2;-89.55;41.51;6.91;96.77;38.93;-15.11;-5.97;-232.36;-8.59;30.41;50.3;35.43;-11.18;123.79;42.22;87.63;7.73;11.4;-172.53;-22.3;146.81;-0.14;0.85;0.42;1
2;85.57;-46.45;7.17;215.58;90.75;-1.67;-28.41;-370.39;-175.5;8.85;353.62;18.03;-8.66;112.89;-22.52;70.75;7.29;4.84;-141.55;-35.24;130.11;-0.36;6.51;1.28;1
2;-77.79;43.82;7.34;124.07;48.42;-11.66;-9.75;-276.37;-8.88;25.72;92.35;25.15;-10.45;128.66;36.69;100.12;7.07;10.41;-159.09;-22.44;166.54;2.67;2.05;1.04;1
2;60.07;-29.28;7.12;248.65;115.19;-9.87;-21.12;-335.23;-175.38;12.79;411.96;22.85;-8.33;151.31;-21.12;101.74;6.17;7.58;-240.92;-34.88;203.99;4.19;5.54;0.72;1
2;-96.61;48.46;8.17;97.03;48.02;-14.65;-5.02;-266.62;-8.2;15.87;39.63;28.32;-10.32;128.25;30.16;79.86;4.43;10.24;-217.86;-23.97;117.55;9.98;1.31;0.27;1
2;104.65;-67.82;6.17;204.74;100.76;0.04;-18.53;-305;-210.6;7.96;362.46;19.14;-8.71;92.92;-44.83;83.14;5.76;5.09;-192.42;-27.28;100.76;-1.06;6.69;1.99;1
2;-79;26;7.61;96.26;36.89;-9.71;-4.97;-242.06;-18.4;16.74;36.5;22.86;-10.73;103.31;40.12;78.73;5.74;9.68;-126.11;-24.81;132.25;3.95;2.47;0.93;1
2;47.61;-37.03;5.05;222.16;105.7;-4.12;-19.65;-406.65;-200.51;8.02;344.17;30.86;-8.16;123.11;-13.03;70.55;6.23;7.79;-154.06;-20.22;128.54;-1.14;6.12;1.18;1
2;-89.53;41.88;6.62;93.39;37.48;-17.58;-7.11;-221.36;1.55;23.58;40.84;30.45;-11.59;136.49;19.1;93.23;6.42;10.63;-204.18;-24.62;139.42;-1.18;0.58;0.7;1
2;84.53;-32.92;6.88;219.02;88.62;-10.65;-25.63;-361.45;-150.62;8.19;359.06;20.53;-9.13;138.66;-29.3;60;6.45;5.89;-125.77;-36.69;120.15;-1.81;6.16;0.72;1
2;-71.41;23.48;9.08;106.3;43.48;-10.99;-7.23;-255.84;-25.54;16.91;76.07;26.09;-9.86;105.79;47.77;90.18;5.11;10.87;-201.66;-25.18;153.34;11.86;2.52;0.82;1
2;50.87;-21.08;6.69;229.44;96.17;-3.08;-25.21;-339.9;-169.94;8.3;372.48;19.61;-8.68;120.48;-31.16;57.28;6.97;5.76;-210.71;-30.38;51.99;1.06;5.86;0.75;1
2;-113.38;43.51;7.16;113.65;55.76;-15.38;-9.18;-268.19;-24.29;19.98;53.07;26.97;-10.58;144.51;48.19;90.22;5.6;10.31;-187.43;-24.66;203.28;4.96;2.1;0.47;1
2;102;-56.94;6.58;222.99;90.54;-6.29;-28.53;-354.93;-169.26;10.42;376.26;20.46;-7.37;104.59;-25.43;73.74;7.13;5.63;-167.81;-27.96;146.91;5.02;6.99;1;1
2;-93.17;33.13;5.47;91.55;32.44;-9.16;-5.81;-241.31;-4.69;27.57;18.99;29.4;-11.44;104.74;33.95;89.08;7.16;10.15;-231.89;-20.44;129.41;-2.79;2.37;1.08;1
2;71.49;-32.15;6.49;224.27;92.56;-7.3;-27.35;-386.16;-159.47;8.46;360.79;24.22;-8.21;130.59;-19.4;76.07;7.63;6.53;-158.87;-28.57;149.45;-0.5;6.57;1.1;1
2;-85.09;35.6;5.84;91.82;32.76;-12.78;-8.52;-230.05;-11.98;25.1;43.13;32.51;-10.92;103.6;33.28;81.63;6.84;10.05;-223.43;-21.47;120.64;-2.06;0.69;0.4;1
2;110.94;-27.81;8.23;234.67;87.53;-16.05;-11.83;-315.95;-158.44;8.87;403.96;14.68;-9.8;101.77;-17.89;68;4.69;5.76;-124.25;-34.01;93.69;0.26;5.96;1.02;1
2;-85.71;29.3;7.95;110.18;38.67;-17.81;-9.92;-261.41;-11.69;9.22;48.99;33.17;-10.39;97.9;31.52;99.37;4.51;12.68;-268.94;-23.29;160.3;4.51;3.05;-0.33;1
2;55.01;-21.25;7.16;233.04;100.13;-10.14;-19.63;-340.36;-172.66;7.89;364.02;18.93;-9.15;141.93;-17.66;60.59;5.97;6.62;-154.15;-33.48;109.83;-0.04;4.64;0.8;1
2;-106.41;46.41;8.42;115.06;52.09;-14.44;-6.87;-269;-18.73;14.83;55.34;25.36;-9.93;142.9;23.38;85.64;4.59;11.15;-193.34;-24.81;188.41;8.45;1.52;0.32;1
2;88.57;-57.44;7.95;221.3;110.4;-10.17;-22.71;-403.02;-226.52;21.27;372.65;19.96;-8.67;130.61;-20.59;85.32;6.74;6.95;-137.48;-35.39;213.53;3.24;6.2;1.75;1
2;-108.1;44.71;9.34;125.58;60.25;-12.15;-7.31;-308.54;-24.72;26.01;56.13;36.86;-10.6;159.55;39.11;99.99;5.79;12.14;-295.33;-29.73;155.04;13.43;2;0.29;1
2;98.37;-42.39;7.9;253.8;110.64;-3.96;-21.4;-393.62;-205.59;9.25;415.58;19.88;-7.92;156.81;-22.87;103.6;6.47;6.29;-294.5;-36.05;164.9;4.85;5.68;0.67;1
2;-110.65;48.19;9.88;117.63;56.64;-12.44;-8.54;-304.53;-16.89;23.81;51.4;34.11;-10.31;157.11;34.06;85.19;6.26;11.55;-217.46;-30.89;194.51;14.89;2.32;0.58;1
2;79.71;-45.27;5.9;225.99;110.85;-7.6;-18.58;-332.97;-210.64;9.88;398.87;22.49;-7.92;126.34;-27.33;100.02;6.24;6.51;-251.67;-21.11;170.23;2.27;6.85;1.95;1
2;-87.33;30.16;6.82;96.86;32.11;-15.37;-7.34;-238.15;-13.11;19.83;39.06;31.03;-11.86;94.86;26.56;87.21;6.08;11.05;-132.25;-24.62;156.04;-0.94;1.36;0.49;1
2;61.23;-35.86;7.27;228.13;99.37;-6.2;-23.05;-365.07;-192.57;12.59;365.99;20.34;-8.5;115.64;-18.96;69.91;6.76;6.3;-199.36;-31.46;122.77;0.44;5.73;1.93;1
2;-86.17;38.02;7.82;107.74;46.44;-13.4;-8.91;-238.92;-28.89;25.19;74.98;31.11;-9.96;114.53;37.72;94.78;6.55;10.56;-249.23;-27.19;164.75;2.16;1.07;0.46;1
2;89.03;-36.95;7.15;213.09;89.05;-0.62;-19.93;-325.69;-166.64;7.64;351.83;18.17;-8.95;110.14;-28.61;60.05;5.59;4.57;-167.21;-34.59;94.6;-1.04;6.83;1.11;1
2;-70.29;27.28;9.31;98.57;39.01;-16.01;-8.93;-236.28;-20.97;16.6;66.8;25.03;-10.14;91.37;49.94;86.64;5.28;11.08;-161.66;-27.74;165.09;6.15;2.09;0.31;1
2;44.09;-38.74;6.96;213.63;104.78;-9.23;-24.99;-341.21;-206.63;13.22;338.08;18.79;-8.99;113.16;-26.31;86.04;6.63;6.79;-225.91;-32.75;124.69;-1.81;5.08;1.17;1
2;-106.97;53.35;6.53;117.17;55.2;-14.46;-8.53;-270.96;-4.46;31.59;47.98;31.79;-10.88;166.69;34.25;78.8;7.57;10.8;-185.63;-21.1;158.41;-1.07;1.87;1.24;1
2;89.84;-44.89;7.37;246.56;120.4;-3.27;-21.5;-392.43;-206.23;9.57;403.02;21.19;-7.74;168.86;-25.08;88.52;6.79;6.85;-154.34;-30.68;128.82;2.58;6.16;0.75;1
2;-93.05;36.53;8.31;105.58;42.14;-16.81;-10.15;-265.62;-23.22;24.47;57.32;29.49;-10.33;108.57;39.99;95.84;7.06;11.69;-218.47;-25.35;188.4;3.38;1.27;0.48;1
2;86.21;-47.06;6.02;213.99;87;0.77;-21.15;-395.53;-172.68;8.04;352.87;16.98;-8.52;100.18;-23.1;74.81;6.63;4.12;-256.54;-28.57;114.08;-1.95;7.06;1.74;1
2;-76.87;34.09;7.43;87.58;29.78;-10.85;-5.5;-232.32;-8.03;26.22;35.7;30.24;-11.08;80.11;18.46;79.83;7.18;10.52;-175.16;-25.27;126.58;-0.67;2.15;1.12;1
2;49.85;-22.47;7.77;225.63;102.97;-5.87;-17.75;-372.35;-190.64;9.03;376.35;20.92;-8.74;124.66;-26;80.13;6.13;6.69;-200.65;-30.09;92.01;0.05;5.59;1.38;1
2;-88.84;30.11;7.4;101.85;39.94;-11.78;-5.78;-248.11;-34.08;19.96;51.52;30.66;-10.42;101.54;46.31;85.27;5.65;9.73;-179.45;-25.05;196.59;-0.48;1.05;0.63;1
2;94.58;-38.1;7.38;228.18;81.26;-4.14;-26.9;-377.75;-135.85;16.55;389.85;19.12;-8.78;98.75;-24.85;67.67;6.69;4.84;-163.5;-33.08;107.85;-0.71;5.92;0.98;1
2;-64.26;29.81;9.26;100.17;44.73;-24.53;-11.01;-220.3;-28.12;28.83;85.56;36.25;-10.08;112.29;45.78;121.32;7.64;14.23;-293.6;-26.56;205.79;5.86;1.95;0.08;1
2;70.73;-25.39;4.26;183.99;102.18;-7.07;-3.04;-187.86;-199.9;7.47;321.17;16.68;-7.51;113.16;-15.69;77.71;4.47;6.42;-165.36;-18.98;85.9;0.21;5.22;1.92;1
2;-122.14;32.67;7.76;107.54;46.19;-13.42;-24.22;-324.79;-72.84;28.78;16.22;33.32;-12.2;144.68;21.9;106.27;8.32;11.66;-300.79;-30.15;181.83;0.6;2.36;-0.47;1
2;83.34;-55.58;6.45;216.75;107.66;-5.66;-27.96;-386.09;-220.76;13.03;357.51;18.67;-7.85;143.24;-26.72;64.82;6.41;5.74;-160.75;-30.96;131.08;-0.52;6.02;1.47;1
2;-68.26;30.02;7.67;98.08;32.03;-13.56;-7.54;-254.69;-24.96;28.09;48.85;34.86;-9.89;112.54;18.29;107.56;7.42;12.33;-197.5;-23;173.86;0.38;1.78;0.62;1
2;59.36;-20.58;7.32;230.52;84.36;-3.77;-19.31;-346.4;-150.89;5.62;357.34;17.59;-8.7;114.16;-15.51;105.41;4.67;5.19;-243.31;-33.34;224.87;-1.17;5.75;0.58;1
2;-87.66;30.37;8.08;95.37;42.18;-9.83;-5.44;-247.23;-22.28;21.36;36.07;25.64;-10.46;122.31;52.39;82.85;5.33;10.28;-155.84;-27.35;165.6;3.57;1.33;0.25;1
2;126.47;-41.32;6.52;206.46;92.5;-1.48;-5.58;-234.92;-184.83;8.9;392.84;17.53;-6.9;113.15;-34.51;57.04;4.13;4.9;-132.88;-17.9;95.49;2.07;6.36;2.99;1
2;-93.36;20.12;9.35;109.42;44.08;-16.19;-27.06;-363.64;-81.84;26.24;49.87;30.08;-10.97;97.3;25.9;114.15;8.48;11.25;-222.93;-33.74;209.81;1.69;2.39;-0.61;1
2;64.91;-27.82;7.96;231.16;81.02;-7.33;-23.32;-370.86;-134.21;12.04;360.96;18.23;-8.85;106.5;-20.34;65.81;5.97;4.95;-148.7;-35.14;124.4;-1.8;5.4;1.07;1
2;-108.36;48.85;8.55;110.77;53.57;-16.59;-8.68;-259.02;-13.33;26.72;39.81;30.16;-10.35;144.13;48.84;92.19;6.22;11.8;-191.34;-26.55;185.83;7.31;1.66;0.2;1
2;84.76;-48.06;7.95;210.62;94.94;-1.45;-19.8;-351.52;-179.34;9.82;344.42;21.11;-7.21;122.09;-35.79;89.17;5.71;5.64;-265.9;-33.56;113.23;1.15;7.22;1.78;1
2;-73.29;30.64;8.02;89.04;32.64;-17.42;-4.95;-214.75;-14.1;29.09;41.83;36.46;-10.84;75.89;28.14;111.33;7.6;12.88;-249.3;-26.39;180.45;-0.25;1.05;1.01;1
2;54.59;-35.81;7.73;205.39;86.52;-1.61;-21.53;-366.73;-161.98;12.31;307.07;23.58;-8.44;113.88;-12.23;72.42;5.86;5.69;-218.28;-34.49;146.53;-0.37;6.56;1.62;1
2;-105.64;55.8;7.45;115.96;43.13;-25.81;-13.22;-254.67;-1.8;32.69;68.23;38.34;-10.64;130.12;34.34;108.55;9.08;13.69;-212.42;-24.19;202.25;2.89;-0.37;-0.38;1
2;139.6;-66.08;5.29;210.57;106.24;-8.15;-3.25;-179.61;-217.85;8.13;407.58;22.47;-7.31;107.15;-11.28;89.05;3.22;6.65;-174.8;-16.32;193.95;0.4;6.61;2.86;1
2;-91.45;32.32;9.81;107.75;45.11;-14.93;-22.37;-288.25;-87.98;34.2;59.37;35.31;-11.09;129.06;19.34;119.78;9.77;11.16;-230.84;-36.19;213.35;3.99;2.3;-0.85;1
2;51.2;-26.5;7.56;221.28;96.35;-3.41;-23.67;-395.29;-151.28;15.71;348.5;17.07;-9.18;125.78;-22.19;67.51;5.85;4.9;-161.25;-34.66;104.72;-1.55;6.03;1.35;1
2;-97.36;45.94;7.66;105.51;50.05;-14.95;-7.55;-241.75;-12.11;31.11;46.38;38.02;-10.27;141.6;30.92;109.28;6.95;12.48;-282.66;-22.77;177.83;3.09;1.05;0.32;1
2;79.67;-43.12;8.23;219.96;101.67;-4.84;-20.02;-353.29;-197.42;20.82;371.53;21.65;-7.98;130.2;-21.35;79.76;6.33;5.47;-186.8;-35.45;128.4;1.04;6.51;1.91;1
2;-65.65;30.15;10.19;107.24;47.22;-32.42;-14.17;-218.71;-27.14;25.77;85.04;34.37;-9.79;134.77;42.08;122.42;7.45;15.4;-230.95;-28.9;256;8.11;1.39;-0.87;1
2;-150.56;57.04;7.63;135.27;58.58;-19.79;-7.97;-337.83;-15;24.66;30.14;33.03;-12.59;146.62;53.38;86.67;6.67;12.29;-182.71;-28.84;173.04;1.87;1.28;0.26;1
2;124.42;-56.95;8.73;240.24;111.31;-4.33;-26;-387.84;-190.24;17.47;414.66;24.86;-5.96;147.45;-31.32;72.26;6.36;5.31;-195.59;-32.56;125.46;5.44;5.96;1.76;1
2;-107.31;46.89;7.64;112.87;43.71;-16.1;-7.29;-259.71;-4.18;27.97;37.36;35.47;-10.82;129.97;31.77;87.18;6.72;12.63;-185.47;-27.24;145.53;-0.42;1.14;0.06;1
2;93.8;-48.29;6.78;221.03;108.27;-9.74;-16.02;-356.41;-181.33;10.05;372.42;19.85;-7.62;134.77;-29.07;73.46;5.02;5.68;-229.96;-35.77;102.62;0.15;5.52;1.76;1
2;-90.61;40.68;8.43;110.24;47.57;-24.48;-10.52;-264.31;-19.41;26.21;57.79;35.85;-10.26;151.43;54.54;120.63;7.43;13.64;-251.41;-25.54;242.74;3.15;0.77;-0.03;1
2;104.99;-51.12;4.21;185.26;99.66;-10.78;-3.14;-190.57;-201.09;8.79;345.62;15.17;-7.79;118.03;-21.1;75.13;3.42;5.42;-151.45;-15.93;164.84;-1.06;5.85;2.57;1
2;-99.27;31.84;10.58;110.09;46.17;-23.09;-22.95;-282.89;-76.9;25.51;56.26;27.83;-11.07;141.49;11.14;114.25;8.32;12.69;-242.85;-35.79;213.08;10.17;1.41;-1.37;1
2;63.06;-33.25;6.81;209.85;91.06;-8.06;-25.9;-359.31;-179.06;8.36;327.03;14.76;-8.88;102.75;-27.93;79.91;7.22;5.78;-161.86;-34.65;125.95;-1.62;5.13;0.45;1
2;-88.55;30.67;8.97;120.35;48.5;-19.54;-10.63;-267.8;-32.26;18.52;67.52;23.84;-9.95;102.29;38.19;108.56;6.09;11.89;-182.3;-24.86;241.15;10.24;3.18;0.35;1
2;61.48;-22.2;7.79;250.14;99.15;-4.47;-25.29;-371.34;-179.71;13.99;398.75;19.05;-8.79;111.73;-26.57;81.05;6.91;5.96;-174.35;-34.98;138.12;0.42;5.69;1.08;1
2;-123.75;53.82;8.49;133.16;66;-21.71;-11.68;-302.28;-37.91;20;66.33;23.48;-10.33;146.77;39.9;101.26;5.72;11.57;-179.09;-25.73;256.02;9.12;1.93;0.01;1
2;119.16;-69.39;7.74;233.3;109.87;-1.69;-18.67;-370.84;-218.79;25.4;407.13;20.79;-8;143.17;-21.92;87.43;6.63;5.56;-209.5;-34.31;129.74;1.91;6.59;2.78;1
2;-66.05;31;10.06;101.61;38.15;-15.76;-6.73;-232.18;-10.7;27.38;61.75;33.09;-9.82;148.84;27.5;94.95;6.45;12.66;-217.06;-28.66;153.26;8.63;1.99;0.15;1
2;45.79;-26.18;7.12;216.94;98.26;-7.9;-24.68;-337.53;-166.38;16.7;337.83;15.73;-8.67;123.01;-15.6;64.2;6.11;4.67;-134.48;-37.03;110.82;-1.66;4.94;1.21;1
2;-90.66;37.77;9.61;106.72;44.16;-19.18;-8.42;-247.9;-21.02;23.89;55.74;29.66;-9.22;131.68;51.93;91.46;5.87;12.7;-189.66;-26.68;209.53;12.57;1.44;-0.37;1
2;120.84;-41.66;3.99;165.66;84.13;-1.6;-3.44;-183.47;-170.54;8.21;315.5;19.16;-8.13;92.67;-28.97;65.01;2.84;4.67;-182.77;-19.16;104.1;0.1;6.61;2.57;1
2;-95.24;21.7;11.54;106.12;40.34;-21.43;-26.06;-317.99;-77.49;28.61;38.51;33.79;-11.32;125.59;5.84;111.01;9;12.88;-179.51;-35.54;192.35;12.17;1.81;-1.18;1
2;79.66;-25;4.11;199.02;89.49;-6.01;-2.25;-211.9;-174.23;8.65;349.77;16.42;-7.01;103.27;-1.79;91.67;2.57;5.03;-162.62;-17.25;189.74;0.21;5.07;1.82;1
1;-106.6;20.72;5.48;60;19.48;-13.07;-3.53;-233.74;0.27;6.94;-50.45;17.28;-10.39;90.32;12.51;49.04;1.69;6.25;-137.45;-21.63;113.48;3.8;3.22;0.99;1
1;97.59;-42.38;7.97;196.99;90.15;-9.39;-8.78;-320.99;-176.81;8.35;367.21;19.07;-9.98;101.98;5.67;84.92;4;6.43;-216.36;-36.31;144.21;-0.9;5.5;1.37;1
1;-106.75;34.99;6.82;72;26.01;-14.77;-4.62;-262.38;5.5;6.78;-46.29;23.67;-10.3;120.8;3.93;54.07;2.44;7.93;-175.03;-23.45;79.98;7.52;3.68;0.62;1
1;84.22;-58.23;7.59;195.3;92.15;-9.14;-16.47;-307.49;-193.7;11.45;343.58;18.56;-9.87;130.69;-5.67;87.04;4.71;4.58;-273.25;-37.73;142.79;-2.9;4.93;1.84;1
1;-104.54;30.35;7.96;65.76;25.63;-9.38;-5.63;-256.76;2.18;6.28;-40.16;23.96;-9.99;126.52;8.86;67.46;2.28;7.76;-201.23;-20.9;114.05;12.66;3.14;0.68;1
1;111.29;-47.44;6.35;170.33;70.25;-4.4;-11.93;-287.24;-133.86;5.91;309.74;20.08;-9.04;91.52;-6.56;78.21;3.57;3.84;-228.26;-37.08;108.46;-3.12;6.37;1.7;1
1;-106.6;29.9;5.99;59.66;25.63;-12.44;-3.26;-233.53;6.24;8.83;-44.19;23.32;-10.97;110.51;6.72;66.74;3.06;8.66;-187.68;-27.71;120.59;7.09;2.17;0.74;1
1;89.52;-45.09;6.65;184.81;83.6;-6.19;-8.61;-286.6;-171.41;7.4;308.74;21.83;-9.45;90.56;-1.44;59.58;3.59;4.73;-193.66;-30.65;99.3;-0.08;5.87;1.62;1
1;-103.35;31.32;5.81;59.04;28.94;-12.28;-1.95;-230.5;-1.62;5.67;-38.96;23.56;-10.69;96.35;17.67;63.74;2.05;8.75;-179.15;-27.38;91.86;4.34;1.24;0.8;1
1;97.62;-32.57;7.98;205.91;84.7;-7.17;-9.12;-346.52;-164.24;7.78;325.82;27.5;-10.22;95.25;-4.93;103.1;3.38;6.41;-195.13;-36.76;183.03;-1.61;6.46;1.16;1
1;-117.29;34.26;8.28;64.79;30.74;-18.47;-2.76;-251.59;4.83;7.44;-62.51;29.86;-10.58;133.3;-6.8;64.49;2.18;9.49;-245.9;-23.35;90.47;11.91;3.02;0.99;1
1;116.87;-40.63;7.94;208.81;81.21;-15.9;-9.17;-330.57;-155.94;7.83;384.96;20.39;-9.55;83.98;6.29;53.53;4.23;7.18;-89.54;-35.68;114.46;-2.01;7.28;1.94;1
1;-96.66;18.61;7;65.21;25.13;-23.68;-6.56;-233.82;-19.72;4.37;-31.02;28.11;-10.41;84.02;15.47;63.91;2.74;9;-213.5;-21.38;82.08;10.32;2.52;0.27;1
1;88.04;-52.42;6.21;190.89;79.94;-3.85;-3.75;-304.97;-139.14;7.74;329.98;21.45;-9.82;82;-11.06;101.4;3.21;4.78;-315.9;-30.74;164.93;-3.84;5.64;2.46;1
1;-105.21;37.7;5.1;57.16;24.22;-10.09;-3.48;-246.01;11.51;5.28;-45.88;22.88;-10.6;96.22;17.29;64.97;1.99;8.42;-65.5;-19.06;90.86;2.44;2.33;0.67;1
1;88.46;-48.47;8.16;188.95;94.51;-6.09;-18.18;-299.05;-183.41;7.45;331.72;22.93;-9.67;102.92;-25.41;79.85;5.14;5.37;-232.15;-35.24;171.19;-1.79;6.44;1.63;1
1;-89.93;17.88;5.39;63.15;27.92;-14.97;-3.94;-223.89;-9.16;9.48;-14.56;18.18;-10.07;116.49;20.51;80.26;3.34;8.86;-231.41;-20.99;153.1;5.93;2.3;1.01;1
1;67.76;-53.4;7.22;205.16;103.96;-6.79;-7.14;-296.94;-201.4;8.96;370.87;23.7;-10.41;88.38;-13.03;91.88;4.3;5.75;-302.05;-29.8;160.51;-1.85;5.5;2.08;1
1;-96.18;38.63;4.84;59.86;25.09;-10.18;-6.16;-218.34;11.86;7.81;-32.73;19.46;-10.99;103.52;17.09;63.76;2.95;7.81;-82.21;-21.26;131.29;2.69;2.24;0.44;1
1;87.85;-41.96;7.65;201.01;82.87;-13.29;-9.29;-293.47;-164.4;10.17;350.72;17.46;-9.6;100.17;-23.16;67.38;4.2;6.45;-128.93;-35.86;121.49;-1.85;6.09;2.44;1
1;-100.68;31.7;7.09;70.53;28.98;-17.9;-6.05;-217.26;-2.69;5.78;-5.19;21;-11.14;99.21;-2.33;77.17;3.14;9.09;-216.72;-24.93;111.8;8.3;2.17;0.32;1
1;102.62;-81.05;6.2;196.98;99.58;-2.58;-14.44;-274.9;-219.35;8.89;371.78;21.49;-8.94;82.95;-13.41;90.37;4.86;5.42;-236.73;-32.41;107.6;-0.09;6.05;2.49;1
1;-109.62;18.86;5.79;61.94;26.02;-12.24;-4.32;-239.07;-4.8;8.92;-46.37;20.02;-11.04;102.36;35.18;89.06;3.44;8.19;-197.98;-30.76;186.78;4.34;2.41;0.5;1
1;106.52;-21.62;6.75;200.82;78.95;-7.98;-4.3;-279.6;-129.2;6.5;363.71;18.11;-9.62;104.59;-16.4;108.5;3.21;5.37;-206.99;-35.23;206.79;-2.64;6.02;2.06;1
1;-108.95;38.59;6.36;58.31;28.71;-14.53;-5.56;-210.09;8.16;7.06;-29.63;24.1;-11.14;105.01;7.02;47.5;2.93;8.92;-149.45;-27.88;43.2;6.14;1.79;0.15;1
1;82.96;-41.1;6.87;196.87;89.13;-9.67;-12.62;-316.95;-168.98;9.18;329.04;23.25;-9.63;106.09;-17.62;90.01;4.24;7.38;-169.88;-29.58;122.01;-1.48;5.79;1.51;1
1;-112.19;22.03;5.03;49.93;21.79;-13.02;-4.02;-215.91;0.02;5.63;-59.95;20.62;-11.28;98.82;5.58;66.39;2.15;7.95;-207.95;-20.75;114.66;4.88;2.23;1.15;1
1;91.14;-53.39;8;195.13;90.56;-14.25;-8.52;-311.77;-196.19;6.8;335.83;19.44;-10.02;115.15;6.51;63.75;3.59;5.99;-201.39;-37.26;113.68;-1.09;4.93;2.04;1
1;-114.38;35.52;6.47;58.02;24.98;-11.28;-3.69;-226.37;3.8;6.15;-43.63;28.92;-11.15;110.42;1.8;62.01;2.46;9.61;-185.48;-19.61;109.53;8.14;2.23;0.66;1
1;95.99;-53.9;7.37;199.29;89.89;-2.53;-9.11;-302.26;-177.57;7.6;335.81;24.25;-9.17;93.74;-7.49;91.16;3.45;5.69;-234.43;-34.11;101.98;0.8;5.46;2.04;1
1;-106.77;37.9;6.05;59.81;22.44;-8.93;-7.98;-224.8;18.06;8.85;-52.06;15.11;-11.23;110.67;2.51;50.76;3.17;6.82;-151.29;-24.86;153.52;3.53;1.88;0.77;1
1;96.26;-52.49;8.33;206.56;95.33;-15.13;-5.56;-303.49;-195.45;10.41;355.8;19.65;-9.86;104.26;-8.3;76.65;3.49;6.78;-148.8;-35.32;119.51;-0.44;5.94;2.59;1
1;-103.88;26.44;6.34;60.42;23.7;-10.35;-8.18;-229.97;0.72;5.92;-46.71;28.03;-10.84;92.36;8.85;50.62;2.72;8.44;-175.88;-19.14;60.39;6.05;2.76;0.55;1
1;89.2;-62.56;7.76;208.97;101.96;-10.22;-9.03;-298.49;-204.42;9.04;376.22;16.51;-10.31;107.6;-7.26;94.13;4.22;5.94;-254.48;-37.27;158.03;-1.92;4.82;2.15;1
1;-104.69;31.35;7.26;62.2;25.6;-11.26;-9.48;-242.36;0.77;8.83;-48.4;26.28;-10.46;113.93;12.21;46.67;3.29;8.03;-145.45;-21.26;78.88;8.92;2.87;0.42;1
1;94.23;-38.45;7.83;210.17;88.07;-14.31;-11.63;-317.87;-176.76;9;375.11;18.15;-10.5;109.41;-16.38;81.52;4.68;6.72;-162.43;-38.37;123.51;-2.55;5.42;1.73;1
1;-100.05;17.48;6.62;58.28;25.58;-14.37;-6.92;-220.57;-3.04;4.6;-49.72;24.77;-10.22;108.63;-4.55;60.41;2.34;8.66;-198.51;-19.93;78.73;10.42;2.91;0.77;1
1;97.78;-49.44;8.67;227.02;93.5;-7.94;-16.26;-331.04;-181.37;8.39;399.73;18.78;-10.96;104.18;-3.74;84.27;5.28;5.7;-214.01;-38.18;157.87;-1.3;4.94;1.47;1
1;-113.7;21.35;8.67;59.41;30.63;-9.58;-8.81;-256.53;-5.87;9.37;-57.27;20.64;-10.79;137.53;16.42;68.37;3.33;7.4;-196.31;-27.56;147.91;16.25;2.61;0.84;1
1;91.1;-33.28;7.84;210.21;79.85;-8.76;-10.18;-232.14;-154.8;9.27;370.84;12.84;-10.53;109.77;-7.91;75.32;4.04;5.64;-187.55;-36.89;96.52;-1.27;4.51;1.87;1
1;-107.72;23.23;7.46;45.48;24.04;-8.74;-6;-211.73;-9.97;7.15;-47.1;12.35;-10.64;76.91;4.91;49.32;2.42;6.63;-127.39;-24.55;56.67;13.82;2.09;0.53;1
1;93.22;-40.6;8.06;192.93;90.29;-9.76;-7.23;-317.13;-167.49;8.01;316.8;16.7;-10.05;102.51;-0.13;59.25;3.67;5.97;-171.44;-33.76;88.27;-1.1;5.47;1.9;1
1;-115.06;27.28;6.64;56.05;24.32;-12.52;-6.48;-231.4;-0.43;4.99;-64.5;25.45;-10.52;110.82;0.39;51.05;2.71;7.88;-147;-18.03;58.85;14.2;3.14;0.71;1
1;113.74;-45.55;8.46;203.02;81.67;-11.83;-17.01;-271.69;-179.71;10.12;360.43;19.67;-10.18;78.11;-9.33;94.2;5.09;7.02;-172.91;-38.07;147.59;-0.65;5.9;1.72;1
1;-107.86;12.69;7.79;52.19;24.13;-12.66;-6.76;-222.07;-11.93;8.28;-70.32;18.37;-10.46;112.4;11.25;62.57;2.4;6.3;-187.25;-25.54;100.9;10.48;2.71;1.12;1
1;94.64;-37.5;8.29;208.8;80.93;-10.88;-12.39;-269.99;-157.04;7.26;386.62;20.52;-10.39;84.92;2.13;97.9;4.59;6.91;-245.56;-33.93;168.11;-2.06;4.91;1.39;1
1;-118.67;24.59;6.18;43.83;22.97;-9.21;-5.89;-211.1;5.25;8.34;-77.11;22.55;-11.1;122.48;4.39;72.1;2.61;7.48;-215.09;-20.26;68.29;11.43;2.92;0.61;1
1;102.29;-41.48;7.36;201.78;82.49;-7.74;-12;-235.68;-145.81;7.48;364.85;10.98;-9.6;83.66;9.71;67.34;4.03;4.25;-200.63;-36.21;97.28;-0.18;4.55;1.88;1
1;-120.51;37.18;5.99;46.29;22.45;-7.57;-4.13;-224.99;9.6;10.02;-72.05;22.38;-10.98;115.32;-5.32;57.44;2.56;7.12;-175.64;-27.82;93.45;8.01;2.49;0.89;1
1;106.92;-55.65;7.4;197.31;90.38;-10.74;-10.19;-291.71;-179.48;7.8;347.18;14.28;-9.61;79.41;3.32;65.98;4.22;5.14;-164.8;-36.93;98.69;0.5;5.09;1.95;1
1;-119.06;28.95;7.81;59.8;25.95;-14.6;-1.48;-251.18;3.34;9.17;-40.61;27.63;-10.89;118.22;-4.08;52.54;2.19;9.49;-188.33;-28.04;37.99;13.34;2.7;1.26;1
1;91.2;-35.97;7.15;197.37;82.94;-7.3;-11.81;-290.3;-151.66;6.82;347.17;14.88;-9.22;74;10.5;74.04;3.76;4.96;-217.98;-37.12;110.5;-1.13;4.98;1.23;1
1;-110.36;35.55;7.34;63.67;25.24;-10.97;-6.37;-252.06;10.25;9.62;-51.87;24.38;-10.73;122.69;-2.23;51.68;2.99;7.86;-172.52;-26.99;70.6;12.02;3.32;0.74;1
1;110.6;-48.43;8.7;204.76;90.06;-12.75;-16.62;-264.7;-180.13;8.88;362.76;14.79;-9.43;96.43;5.52;62.48;4.82;4.92;-184.84;-37.8;145.5;-0.31;5.98;2.02;1
1;-111.04;31.49;8.8;67.73;33.38;-17.91;-7.53;-242.92;-0.15;10.08;-13.32;21.47;-10.84;136.36;5.38;80.5;3.52;9.24;-226.3;-23.67;124.31;13.43;1.75;0.63;1
1;100.95;-40.92;8;203.25;89.31;-13.15;-11.4;-269.35;-159.24;12.21;364.05;17.46;-9.75;127.83;11.86;84.24;4.18;4.91;-191.12;-37.57;142.58;-1.77;5.33;2.09;1
1;-108;33.6;7.47;52.01;26.5;-11.24;-8.94;-222.75;6.44;9.45;-40.25;26.07;-10.84;135.14;10.79;75.01;3.87;9.01;-221.16;-24.18;73.65;12.65;1.84;0.17;1
1;90.37;-41.99;7.53;197.52;98.27;-13.43;-8.68;-269.85;-188.36;8.86;340.55;17.42;-9.43;107.14;-13.23;86.2;4.25;5.84;-194.68;-30.55;109.14;0.91;5.27;2.01;1
1;-106.92;28.59;5.13;54.5;26.52;-13;-6.69;-208.87;-0.42;5.69;-47.09;28.42;-10.8;101.12;7.54;80.69;2.93;9.91;-254.82;-17.7;103.51;7.46;2.69;0.31;1
1;90.77;-53.67;8.3;198.18;93.57;-8.28;-22.44;-285.96;-188.63;10.65;345.25;20.77;-9.41;87.87;-12.96;97.34;6.3;6.6;-238.03;-37.83;187.88;0.18;6.05;1.85;1
1;-106.37;18.69;6.67;56.75;27.19;-17.31;-3.1;-239.71;-3.7;9.86;-48.14;26.16;-10.29;123.54;20.11;99.28;2.47;9;-295.52;-27.2;170.24;10.23;3.33;1.2;1
1;89.61;-33.8;7.88;201.5;93.41;-12;-18.4;-274.75;-181.33;7.82;380.63;18.11;-10.58;95.02;-14.5;60.34;5.6;6.65;-176.68;-36.86;145.49;-1.61;4.73;0.94;1
1;-114.28;24.24;6.87;57.92;26.6;-16.09;-6.85;-243.93;-5.64;8.13;-43.3;23.49;-10.69;115.61;4.97;66.13;3.05;8.6;-207.42;-24.27;85.26;7.61;1.84;0.54;1
1;93.41;-48.39;8.41;195.48;91.87;-7.04;-15.13;-285.06;-181.31;9.13;336.39;17.45;-9.91;107.11;-1.23;79.17;4.55;5.76;-238.96;-37.53;159.35;-0.94;5.62;2.01;1
1;-109.83;31.76;8.32;53.7;31.98;-9.77;-6.85;-230.42;-5.82;9.7;-31.98;19.68;-10.58;146.9;3.17;72.25;3.93;7.99;-196.98;-26.89;114.94;13.71;1.78;0.36;1
1;90.54;-51.99;8.35;190.95;90.97;-7.07;-14.34;-293.9;-176.78;10.02;331.02;15.04;-9.83;95.14;-10.57;90.47;4.63;5.98;-229.27;-36.61;127.44;-1.14;5.68;2.18;1
1;-115.69;24.72;8.05;47.66;30.07;-11.05;-7.15;-248.25;-4.42;9.02;-65.21;22.96;-10.67;135;8.53;71.55;2.84;7.8;-202.5;-25.75;104.54;14.14;2.69;0.73;1
1;95.07;-43.99;8.87;200.27;91.1;-12.45;-13.84;-285.44;-170.2;9.32;357.31;18.94;-9.87;95.66;-8.28;73.55;4.93;6.66;-182.17;-37.13;119.13;0.38;5.41;1.85;1
1;-106.67;19.02;7.53;53.34;25.35;-10.18;-8.29;-210.55;-6.27;6.13;-60.28;18.77;-10.95;108.61;8.2;65.5;3.1;7.29;-205.01;-22.15;80.89;8.34;2.72;0.36;1
1;104.32;-57.48;8.2;202.2;94.34;-10.89;-11.77;-270.59;-187.91;10.64;352.92;16.78;-9.39;106.3;-0.88;85.97;4.53;5.46;-186.52;-36.19;137.77;-0.38;5.64;2.33;1
1;-117.38;28.36;6.96;49.2;21.16;-16.5;-5.26;-220.3;9.82;9.51;-74.37;21.31;-11.07;109;9.51;67.37;2.58;7.88;-202.34;-28.23;137.65;7.47;2.5;0.83;1
1;103.86;-38.96;7.5;196.45;89.77;-8.6;-7.41;-264.79;-168.56;8.11;344.93;15.81;-9.3;92.87;-7.31;66.53;3.66;5.59;-168.64;-29.38;118.5;0.12;5.58;1.43;1
1;-111.24;22.32;6.68;58.57;28.64;-11.64;-8.76;-220.86;-3.33;7.05;-49.37;21.61;-11.45;103.01;14.46;68.59;3.48;8.67;-186.9;-28.32;87.08;9.52;2.33;0.34;1
1;89.96;-52.58;8.39;203.55;101.01;-8.92;-8.12;-282.22;-194.27;10.13;352.72;13.64;-9.88;103.54;-8.63;87.31;4.01;5.92;-235.3;-36.01;132.03;1.11;5.17;2.29;1
1;-105.13;26.84;6.48;58.56;26;-8.43;-5.99;-213.93;-2.16;5.64;-36.43;23.24;-10.38;101.52;13.97;59.84;2.65;8.41;-143.19;-19.89;74.81;9.11;2.79;0.33;1
1;91.88;-42.39;7.4;209.03;95.75;-12.11;-8.08;-305.08;-180.42;9.36;364.05;17.15;-10.32;97.57;-7.85;71.82;3.93;6.83;-146.09;-34.58;119.17;-0.84;5.32;1.84;1
1;-112.5;27.66;6.91;62.76;25.74;-14.64;-3.77;-219.76;-3.15;5.45;-34.55;24.86;-10.99;102.13;-4.12;58.05;2.28;9.23;-176.33;-22.45;94.59;10.49;1.66;0.75;1
1;102.77;-53.55;8.42;213.91;93.34;-11.41;-14.31;-290.19;-187.04;6.87;358.89;16.03;-10.01;83.61;5.73;85.15;4.36;6.06;-185.3;-35.1;182.68;-0.38;5.24;1.61;1
1;-112.09;24.95;7.28;58.53;24.8;-10.82;-7.14;-230.63;1.29;8.71;-57.04;22.49;-10.67;122.14;-3.63;67.8;2.69;8.04;-213.86;-20.98;89.5;11.72;2.81;0.96;1
1;97.15;-45.51;8.65;206.98;93.22;-11.28;-6.97;-300.28;-188.28;9.88;368.63;18.07;-10.02;90.82;5.13;92.11;3.84;6.31;-236.12;-36.23;175.92;0.86;5.34;1.75;1
1;-106.81;26.89;7.02;61.31;30.29;-9.46;-9.52;-230.52;0.1;5.16;-43.75;26.25;-10.93;107.52;19.64;56.49;3.26;8.25;-128.07;-20.34;123.39;9.39;2.64;-0.02;1
1;100;-38.34;8.34;203.13;93.98;-12.81;-11.12;-315.19;-170.48;8.8;369.33;16.79;-9.74;111.04;-12.27;70.04;4.05;6.9;-155.47;-37.87;121.28;-0.73;5.52;1.99;1
1;-108.12;21.93;8.25;64.72;27.79;-9.99;-7.19;-237;-7.71;5.72;-40.66;27.28;-10.35;104.64;3.58;58.92;3.07;8.9;-184.76;-23.9;72.02;14.2;3.53;0.55;1
1;95.95;-60.64;7.26;203.4;96.64;-7.5;-8.12;-318.65;-196.22;8.35;357.51;21.5;-9.37;93.12;-2.79;72.15;3.59;5.86;-163.85;-31.4;128.11;0.38;5.79;2.56;1
1;-101.15;32.5;6.28;66.56;25.5;-15.77;-6.62;-233.58;3.13;6.25;-33.54;28.13;-11.05;91.16;0.03;51.85;3.21;9.25;-196.06;-21.38;60.08;5.62;1.85;0.38;1
1;110.68;-44.8;8.23;225.03;87.3;-5.26;-10.56;-357.54;-160.05;8.64;414.04;23.24;-9.82;96.22;4.78;62.07;4.46;6.03;-158.19;-37.9;132.05;0.56;6.84;1.76;1
1;-102.35;30.52;7.57;74.13;29.76;-19.09;-5.53;-268.53;-3.38;6.87;-25.89;34.9;-10.43;104.37;10.67;67.88;2.99;10.7;-239.85;-23.09;70.88;12.77;2.46;0.69;1
1;98.12;-42.65;7.6;210.38;88.26;-15.88;-7.89;-338.26;-151.99;8.01;354.92;27.54;-10.14;87.59;-16.25;60.35;3.92;6.95;-172.85;-32.37;76.32;-0.6;6.14;1.42;1
1;-104.19;20.12;5.53;59.31;29.64;-17.18;-7.49;-238.86;-7.66;5.64;-34.48;32.06;-10.67;93.73;21.03;66.71;3.19;9.42;-210.79;-20.19;103.05;7.04;2.55;0.09;1
1;94.8;-47.44;8.24;207.32;90.57;-7.23;-10.31;-333.63;-161.04;9.71;368.68;20.66;-9.97;98.07;-3.13;77.64;3.91;5.89;-192.52;-36.3;155.36;-1.04;6.26;2.42;1
1;-99.78;34.44;7.76;71.22;29.74;-16.38;-8.32;-236.83;4.75;8.83;-18.77;30.69;-10.31;118.37;5.41;60.49;3.53;9.9;-204.32;-21.19;84.76;11.99;2.29;-0.25;1
1;94.41;-56.79;8.09;212.8;101.46;-6.17;-20.32;-322.14;-191.36;9.93;385.76;22.45;-10.17;109.67;-13.85;85.3;5.56;5.8;-217.21;-38.12;148.05;-1.25;5.73;1.79;1
1;-101.85;28.03;8.13;64.19;34.87;-11.28;-8.54;-269.72;-12.76;8.92;-41.74;27.62;-10.65;128.78;20.94;79.34;3.55;8.91;-255.92;-26.81;144.67;11.45;2.56;0.53;1
1;89.3;-39.42;9.16;205.64;100.96;-11.06;-13.49;-281.83;-191.13;8.24;363.5;15.66;-9.42;108.5;-7.46;68.87;4.5;5.32;-207.74;-37.11;139.99;1.77;5.49;2.25;1
1;-98.55;28.73;7.58;65.08;27.28;-12.85;-8.57;-219.88;2.82;6.91;-34.25;26.7;-10.58;115.58;8.24;69.72;3.37;9.16;-240.59;-19.15;79.25;12.48;2.8;0.2;1
1;101.31;-53.35;8.94;216.27;96.32;-13.42;-12.35;-343.74;-188.28;10.54;378.54;20.03;-10;97.33;-9.89;78.12;4.57;6.64;-108.49;-36.74;157.73;0.55;5.81;2.11;1
1;-105.91;20.27;7.44;59.51;29.84;-23.54;-8.23;-247.87;-10.65;6.5;-50.02;32.06;-10.91;120.88;12.57;83.19;3.15;10.26;-292.41;-23.21;113.38;13.8;2.25;0.45;1
1;98.86;-44.08;8.51;216.19;99.4;-12.75;-7.32;-359.18;-199.94;9.35;396.56;21.13;-9.75;100.15;1.02;41.85;4.01;7;-107.4;-35.54;87.22;0.82;6.15;2.38;1
1;-93.22;36.59;5.71;71.7;21.62;-18.22;-7.9;-232.65;11.37;5.82;-16.74;26.23;-10.26;88.16;-4.73;45.26;2.97;8.55;-164.56;-19.3;50.54;7.78;2.6;0.53;1
1;87.93;-52.57;8.41;214.96;99.73;-11.7;-13.88;-346.28;-200.09;10.45;373.06;22.24;-10.19;93.35;-12.08;66.79;4.87;6.96;-174.77;-37.78;105.6;-0.01;6.09;2.35;1
1;-103.56;23.43;6.95;71.04;29.06;-18.1;-6.72;-242.52;-5.25;6.41;-33.37;28.39;-10.65;111.4;2.57;70.53;3.09;9.7;-190.97;-23.71;86.2;10.8;3.14;0.56;1
1;98.9;-53.67;7.76;203.36;97.9;-10.01;-11.06;-282.98;-195.52;10.06;382.02;20.26;-9.31;112.13;4.84;65.89;4.3;6.5;-156.25;-37.2;130.8;-0.93;5.91;2.66;1
1;-110.96;23.83;6.9;63.06;26.85;-13.66;-8.64;-236.39;-11.05;5.63;-30.99;25.17;-11.06;98.79;8.59;60.28;3.13;9.21;-145.51;-23.05;82.01;11.36;2.15;0.67;1
1;82.79;-47.16;8.4;207.85;93.47;-15.68;-8.65;-326.74;-187.24;7.26;371.24;18.79;-9.83;103.51;-10.17;68.52;3.94;7.53;-157.03;-35.89;89.14;1.5;4.65;1.98;1
1;-114.55;26.69;6.84;56.87;28.74;-13.3;-5.34;-233.86;-2.37;4.78;-41.68;29.37;-10.92;114.8;0.38;68.61;3.1;9.07;-234.07;-21.2;89.82;11.93;3.09;0.82;1
1;102.38;-56.28;8.53;212.08;98.15;-10.96;-7.65;-300;-190.48;8.93;386.83;16.95;-9.49;98.86;1.86;60;3.22;6.32;-183.78;-36.45;101.01;1.27;5.09;2.7;1
1;-103.01;24.78;7.82;63.54;31.59;-14.73;-8.72;-228.42;-6.47;6.63;-26.68;26.96;-10.45;120.62;8.35;56.63;3.32;9.57;-160.08;-22.6;83.53;16.54;2.4;0.17;1
1;91.13;-47.44;8.19;203.36;93.62;-7.89;-12.07;-304.08;-180.79;12.48;349.54;19.5;-10.07;105.24;-14.82;92.37;4.77;6.83;-166.99;-35.15;182.73;-1.27;5.97;2.24;1
1;-105.46;26.32;7.49;59.04;29.58;-15.42;-8.11;-244.76;-12.83;7.36;-48.41;18.22;-11.21;110.36;4.39;67.96;3.36;8.06;-204.74;-23.19;108.3;12.1;1.66;0.28;1
1;99.84;-52.27;8.67;215.84;96.79;-12.06;-8.21;-321.62;-176.54;10.46;372.47;15.22;-9.93;106.83;4.65;72.96;3.88;6.16;-94.55;-36.04;176.55;0.78;5.54;2.51;1
2;-94.63;41.44;6.97;87.27;33.83;-14.06;-8.03;-237.15;2.92;10.88;12.32;24.91;-10.36;109.64;-3.18;83.84;3.48;9.3;-190.02;-21.82;93.46;4.92;2.57;0.58;1
2;94;-67.02;6.9;201.3;103.81;-7.78;-9.47;-271.3;-224.43;8.77;343.23;16.51;-8.36;83.98;9.07;89.45;4.36;4.96;-192.62;-35.16;162.79;-0.39;5.73;1.56;1
2;-93.31;34.77;6.76;88.61;31.31;-9.03;-5.29;-232.48;-9.37;7.43;16.55;30.01;-10.37;94.16;14.81;71.91;3.24;8.97;-198.87;-26.81;103.03;3.55;2.6;0.05;1
2;93.63;-61.08;6.06;205.54;98.41;-11.35;-8.64;-297.97;-199.53;9;355.97;13.05;-8.99;99.27;-10.53;55.71;3.99;4.81;-144.79;-32.74;67.17;-2.06;5.36;2.34;1
2;-101.15;38.83;6.59;86.9;29.56;-14.64;-5.07;-231.59;4.74;7.54;16.94;32.71;-11.17;100.25;-0.08;76.19;3.3;9.92;-243.57;-26.45;99.84;2.63;2.43;0.27;1
2;77.62;-64.48;6.99;204.49;101.32;-2.01;-23.61;-355.83;-216.28;8.48;333.95;20.72;-7.46;106.75;-14.24;87.96;6.58;4.47;-313.18;-29.68;105.84;0.56;6.4;1.4;1
2;-89.77;35.32;5.82;88;34.29;-12.64;-6.14;-241.09;-8.79;27.69;16.54;32.59;-10.76;114.52;17.17;115.24;7.07;10.41;-269.3;-21.18;171.28;-1.08;2.47;1.1;1
2;114.43;-43.5;5.79;199.74;88.32;-3.99;-7.42;-216.63;-175.2;9.87;363.91;15.97;-7.68;87.37;10.5;78.95;5.51;5.25;-149.54;-18.75;176.17;-0.34;5.92;2.81;1
2;-98.88;28.24;9.18;95.21;38.11;-13.09;-21.6;-277.19;-48.85;17.89;33.46;25.56;-10.68;120.84;1.65;100.91;6.28;9.28;-256.25;-35.43;170.33;9.26;2.97;-0.6;1
2;81.86;-28.81;7.82;224.82;99.61;-17.41;-18.64;-359.27;-179.48;7.77;366.99;18.18;-9.26;117.95;-5.93;42.4;5.3;5.63;-114.95;-37.26;64.88;-1.12;5.44;1.45;1
2;-89.8;32.26;7.76;93.81;31.93;-15.01;-5.97;-235.12;-8.39;15.33;28.43;33.2;-9.31;105.21;8.28;87.37;5.3;11.72;-215.21;-21.37;140.05;9.82;2.59;0.13;1
2;82.06;-50.27;8.43;241.08;110.4;-12.26;-23.26;-334.85;-216.85;12.58;405.54;21.8;-9.77;105.97;-11.67;80.59;7.38;6;-186.95;-34.58;110.27;-2.08;5.63;1.92;1
2;-88.6;35.78;8.42;103.19;40.38;-16.25;-8.04;-241.12;-16.26;14.76;50.35;23.61;-9.2;111.28;11.42;91.67;4.97;10.88;-227.06;-23.79;142.44;8.68;1.84;0.01;1
2;100.09;-48.84;7.15;223.76;94.04;-4.4;-22.62;-388.09;-180.59;10.96;387.88;29.34;-9.53;112.18;-19.28;57.87;7.31;6.3;-128.93;-33.99;111.81;-1.5;6.41;1.88;1
2;-78.51;24.02;9.81;116.74;39.14;-20.37;-9.71;-287.92;-21.11;15.29;74.36;29.5;-9.6;114.36;21.33;102.44;6.59;13.06;-273.31;-26.79;144.15;14.26;2.3;0.53;1
2;51.66;-21.42;6.51;228.82;97.78;-4.57;-25.88;-328.6;-158.61;11.01;370.41;20.51;-8.57;129.41;-5.21;87.73;6.81;5.33;-215.65;-36.63;122.65;-1.78;5.5;1.41;1
2;-87.49;46.18;8.51;91.39;44.35;-16.5;-6.35;-229.59;-10.3;21.93;39.74;34.09;-9.71;138.18;20.47;99.56;5.6;11.11;-224.61;-24.81;174.43;10.17;1.82;-0.05;1
2;90.64;-40.93;8.37;223.65;93.59;-1.93;-22.48;-308.93;-156.55;10.9;386.9;18.43;-7.81;129.59;-19.22;83.11;6.36;4.54;-185.59;-35.19;163.28;1.57;6.34;1.44;1
2;-94.61;34.76;7.34;89.87;40.35;-14.24;-4.74;-236.6;-11.62;16.3;12.87;22.89;-10.17;114.56;30.14;94.05;4.79;10.47;-168.38;-22.01;169.46;5.3;2.72;0.75;1
2;88.16;-39.08;7.74;219.09;96.25;-16.64;-16.08;-367.61;-173.32;9.42;367.64;19.44;-8.86;118.55;-6.74;68.16;5.4;6.4;-111.03;-34.21;181.55;1.13;5.57;1.38;1
2;-90.49;34.73;9.93;106.04;43.33;-12.79;-5.3;-248.41;-19.26;17.1;39.67;29.81;-9.51;125.88;16.57;104.28;5.61;11.85;-227.1;-29.29;171.68;16.09;2.78;0.35;1
2;74.38;-54;7.2;205.7;97.37;-1.78;-25.63;-340.42;-196.02;8.52;358.23;22.16;-8.82;107.95;-16.19;77.51;6.87;4.94;-210.78;-33.52;166.11;-0.15;5.48;1.55;1
2;-83.32;35.21;6.74;92.68;34.65;-20.4;-7.37;-235.94;-7.35;22.12;35.75;27.54;-9.94;115.58;24.79;100.25;6.31;11.31;-233.41;-22.07;154.84;2.76;2.06;0.59;1
2;72.83;-33.86;6.33;210;99.54;-7.07;-15.29;-340.18;-194.98;9.39;348.46;19.31;-9.47;121.73;-16.88;78.2;5.35;5.55;-168.29;-34.64;183.44;-2.8;5.57;1.52;1
2;-105.73;36.9;9.02;108.1;39.8;-15.88;-7.02;-279.82;-9.59;11.61;46.79;34.08;-10.07;125.59;34.18;87.48;4.24;11.63;-207.88;-26.04;182.18;12.87;2.57;0.18;1
2;92.82;-45.71;6.35;218.3;87.46;-7.12;-25.77;-389.74;-150.37;9.86;369.97;27.26;-8.41;124.35;-23.45;99.06;7;6.83;-193.58;-31.18;165.99;-2.34;6.91;1.51;1
2;-85;36.9;6.56;97.81;42.18;-11.7;-6.48;-253.18;-8.04;33.08;31.57;39.67;-10.65;130.04;22.62;122.92;8.63;12.44;-345.87;-20.89;176.84;2.24;1.82;1.11;1
2;57.37;-37.81;7.96;222.71;113.6;-5.7;-24.8;-384.33;-224.24;14.2;343.51;16.98;-8.4;135.8;-11.02;88.94;7.33;6.15;-249.97;-35.92;162.97;1.29;5.49;1.53;1
2;-102.84;38.86;6.64;107.26;43.64;-13.77;-9.52;-255.83;-8.29;28.66;35.41;35.03;-10.64;151.16;43.71;107.67;6.91;11.59;-285.14;-22.24;175.16;3.91;2.02;0.36;1
2;86.99;-43.98;6.83;202.03;102.2;-6.37;-13.19;-268.97;-195.2;8.54;357.99;14.06;-8.72;130.13;-33.44;71.8;4.24;4;-254.89;-35.91;118.8;-1.56;5.89;2.5;1
2;-95.93;33.78;8.07;93.44;36.98;-14.74;-6.61;-233.57;-8.48;11.17;23.75;20.78;-10.04;109.2;39.82;78.93;4.16;11.4;-112.05;-23.41;174.33;6.98;2.44;-0.28;1
2;69.27;-42.52;6.81;204.49;106.4;-5.68;-21.52;-303.47;-220.53;8.58;332.65;15.95;-8.43;127.36;-24.54;94.68;7.03;4.89;-235.83;-33.9;207.4;-1.65;5.28;1.79;1
2;-115.96;44.44;7.77;106.51;50.38;-13.52;-8.6;-278.17;-10.67;20.9;18.98;25.09;-11.22;135.89;32.29;84.52;5.8;10.83;-145.95;-25.04;186.36;7.43;2.92;0.89;1
2;79.4;-75.09;9.22;223.95;134.6;-2.34;-23.85;-336.65;-287;11.02;380.4;17.56;-7.86;127.39;-25.9;104.47;6.68;5.43;-261.98;-33.16;146.83;3.42;4.93;1.93;1
2;-93.22;35.31;8.24;97.91;39.48;-12.79;-7.5;-235.78;-8.55;21.6;31.7;23.73;-10.14;130.95;32.52;81.71;6.18;11.5;-165.77;-25.03;160.3;10.05;2.61;0.34;1
2;71.7;-41.05;6.93;209.07;103.09;-6.65;-23.46;-326.24;-205.36;9.52;332.32;12.49;-8.8;112.36;-29.15;67.23;7.63;4.18;-199.29;-32.48;94.85;-0.67;5.21;1.68;1
2;-90.35;36.02;7.86;88.54;40.16;-15.31;-5.62;-238.11;-16.33;21.14;30.97;24.8;-10.09;112.03;31.66;96.04;5.71;11.09;-173.21;-22.79;212.45;6.7;1.93;0.64;1
2;80.11;-33.73;7.94;216.26;97.67;-2.61;-24.74;-329.1;-192.9;7.15;354.36;15.62;-8.66;112.6;-10.89;84.18;7.14;4.36;-257.39;-30.09;101.58;0.98;5.89;0.84;1
2;-78.24;37.8;6.99;94.45;35.15;-16.19;-7.67;-230.09;-1.77;29.33;43.24;27.13;-10.21;123.7;18.86;96.71;7.53;11.47;-121.09;-20.65;189.54;2.3;2.98;1.12;1
2;57.11;-37.54;7.83;222.32;108.53;-0.86;-24.84;-353.82;-219.74;9.69;348.28;15.2;-8.45;112.47;-16.92;103.34;6.75;4.31;-269.19;-33.38;188.21;0.19;5.49;1.11;1
2;-96.18;34.6;8.24;95.09;42.04;-12.44;-4.94;-234.03;-13.37;22.63;30.9;29.16;-10.09;114.94;30.93;99.71;5.66;11.06;-255.27;-22.8;188.66;8.46;2.27;0.86;1
2;84.04;-47.4;6.84;215.77;96.06;-8.73;-23.86;-376.18;-176.98;9.81;359.5;19.81;-9.15;113.18;-19.94;69.46;6.53;4.39;-204.19;-35.88;140.31;-1.03;5.49;1.58;1
2;-78.17;30.66;9.79;97.49;42.68;-14.39;-7.2;-250.8;-21.17;18.61;46.65;30.12;-9.57;123.1;38.67;117.16;6;12.39;-225.91;-26.75;253.57;14.17;2.83;0.3;1
2;61.66;-19.7;7.07;218.58;98.73;-9.45;-22.89;-305.2;-174.25;12.38;358.19;16.48;-8.82;128.33;-21.91;70.04;7.11;5.64;-146.46;-33.87;110.92;0.08;5.29;1.24;1
2;-96.94;40;8.75;111.3;48.39;-17.36;-6.79;-267.59;-19.69;18.5;54.27;24.64;-9.62;136.04;33.72;94.84;4.96;11.74;-144.39;-26.22;226.88;10.67;2.36;-0.16;1
2;83.02;-44.26;7.77;233.81;110.89;-8.66;-23.99;-321.79;-205.42;10.4;383.18;20.59;-8.07;134.81;-14.28;77;7.19;5.17;-241.58;-35.36;96.24;3.22;5.54;1.41;1
2;-79.31;36.82;8.25;115.76;42.67;-18.44;-9.05;-264.14;-14.89;23;62.63;28.76;-9.85;132.53;25.28;103.99;6.63;12.74;-161.25;-22.35;222.75;9.25;3.74;0.67;1
2;60.71;-27.87;7.63;233.78;113.18;-5.89;-26.77;-386.09;-205.73;10.81;367.99;18.37;-8.52;145.42;-18.03;63.06;6.79;5.76;-187.53;-35.22;123.66;-0.09;5.51;1.05;1
2;-91.23;36.11;8.58;105.54;47.17;-15.77;-6.18;-255.7;-19.3;20.15;50.95;25.97;-9.54;132.98;19.01;108.78;5.45;11.17;-248.55;-25.75;185.51;12.06;2.5;0.59;1
2;84.82;-44;7.78;215.11;97.19;-8.48;-22.27;-350.21;-190.34;10.95;365.08;14.56;-8.39;113.62;-11.59;92.55;6.26;5.15;-154.06;-36.25;195.97;-0.02;5.86;1.57;1
2;-101.42;35.86;9.64;138.24;48.45;-27.65;-12.19;-318.05;-31.25;20.83;78.59;26.33;-10.13;138.24;9.57;111.96;6.04;13.55;-164.38;-27.17;233.49;16.34;3.91;0.41;1
2;73.04;-51.78;9.46;253.74;113.75;-8.16;-25.53;-326.46;-230.92;9.07;390.88;16.32;-7.09;122.19;-1.48;114.34;6.77;5.71;-211.99;-35.52;253.9;5.29;4.67;1.24;1
2;-127.48;61.89;7.7;133.66;69.51;-19.27;-7.91;-315.85;-26.72;21.27;54.46;27.03;-11;174.06;28.71;98.8;5.85;11.66;-180.04;-23.27;225.01;8.64;2.79;0.3;1
2;117.4;-72.61;9.25;239.4;121.77;-3.64;-24.5;-407.63;-228.92;14.35;398.18;23.55;-5.85;172.8;-23.76;108.74;6.59;6.84;-245.2;-34.71;149.73;7.24;6.66;2;1
2;-77.73;30.17;8.04;97.86;38.93;-10.63;-9.68;-249.36;-13.52;26.42;48.26;33.31;-9.35;153.94;14.59;103.43;6.5;11.23;-266.39;-22.46;183.14;7.74;3.34;0.9;1
2;58.19;-29.1;8.67;228.61;104.57;-2.55;-28.62;-359.17;-194.87;11.36;356.03;17.77;-8.14;118.19;-5.48;74.96;6.5;4.92;-208.55;-35.79;146.34;1.38;5.79;1.18;1
2;-100.52;38.4;8.64;107.9;45.22;-13.07;-6.78;-253.73;-12.01;28.28;27.16;31.03;-10.11;165.2;21.57;97.45;6.56;11.47;-204.67;-22.27;195.68;13.64;2.15;0.46;1
2;86.48;-53.02;7.71;212.97;96.19;-12.99;-19.8;-336.38;-196.73;10.05;349.76;14.71;-8.56;108.31;-5.41;64.98;5.77;5.53;-159.19;-36.89;196.59;0.6;5.27;1.95;1
2;-98.19;29.95;7.15;97.64;26.82;-17.6;-8.15;-252.9;-2.62;18.41;15.84;30.64;-9.97;106.58;14.11;93.07;5.41;11.23;-163.28;-20.07;161.82;6;3.51;0.18;1
2;77.14;-39.73;7.67;218.45;102.86;-12.18;-30.99;-371.3;-217.64;8.48;347.1;12.26;-8.97;105.6;-8.86;107.57;7.35;4.94;-164.34;-35.38;243.81;-0.54;5.43;1.06;1
2;-85.65;29.05;7.89;101.82;44.9;-15.88;-7.98;-223.08;-23.9;22.61;50.48;29.77;-9.68;143.97;31.69;114.84;6.62;11.93;-279.19;-21.49;203.97;10.48;2.19;0.22;1
2;105.56;-41.71;5.63;190.01;99.5;-4.64;-3.89;-208.71;-200.03;7.16;328.08;15.18;-6.85;116.22;-0.4;72.26;5.71;4.71;-126.55;-17.92;163.88;-0.05;6.36;2.96;1
2;-94.74;26.1;9.44;91.25;44.42;-18.65;-28.53;-270.44;-69.9;22.01;40.8;28.75;-11.46;121.77;9.86;129.76;8.73;12.5;-265.63;-33.89;229.01;6.63;1.43;-1.68;1
2;48.94;-23;8.56;225.36;90.34;-2.14;-15.96;-303.42;-192.36;9.52;366.68;14.08;-8.59;91.13;-19.56;76.96;5.27;4.06;-212.34;-35.46;117.87;1.38;5.34;1.5;1
2;-102.93;39.59;8.29;89.93;41.17;-14.98;-6.94;-223.81;-10.23;16.23;29.97;22.44;-10.74;110.32;33.82;74.56;5.01;11.18;-111.56;-24.85;197.55;9.87;1.66;-0.59;1
2;99.64;-52.37;8.31;220.34;98.68;-0.16;-28.6;-369.52;-195.05;21.3;375.65;18.3;-7.33;114.23;-23.84;67.65;7.11;3.98;-231.71;-36.17;95.49;3.68;7.16;2.29;1
2;-96.09;42.6;7.45;113.26;51.42;-13.86;-8.14;-250.29;-10.98;33.62;42.98;33.9;-10.14;154.81;34.12;115.09;8.36;11.33;-234.9;-21.27;208.37;5.39;2.26;0.13;1
2;83.52;-47.96;8.16;213.6;90.34;-4.55;-21.37;-364.92;-185.12;10.15;364.69;18.78;-7.37;116.68;-19.11;87.07;5.62;4.8;-300.95;-32.28;196.85;3.42;6.92;1.66;1
2;-75.42;33.74;7.19;87.6;30.33;-13.78;-6.87;-226.5;-3.39;26.75;33.13;36.7;-10.78;97.12;24.56;101.6;7.46;11.84;-204.49;-23.51;204.69;-1.61;1.63;0.86;1
2;53.14;-34.89;8.31;214.78;100.94;-3.73;-20.26;-370.81;-195.07;9.15;324.43;20.65;-8;114.69;-8.29;94.04;5.59;5.29;-337.25;-36.66;190.44;1.67;6.15;1.44;1
2;-85.83;42.69;7.4;111.14;48.39;-16.82;-7.09;-245.41;-17.27;34.43;49.26;36.46;-10.75;125.26;21.85;110.92;8.79;12.67;-264.65;-26.58;215.14;-0.46;2.25;0.98;1
2;83.71;-51.69;7.57;205.71;125.13;-5;-6.17;-236.94;-280.83;10.62;365.66;18.25;-7.1;123.65;6.61;95.31;4.62;6.38;-238.42;-18.98;154.65;6.19;5.51;2.66;1
2;-90.58;29.53;8.8;100.17;35.82;-21.73;-20.08;-326.64;-52.84;27.03;37.86;35.59;-11.6;117.85;8.53;116.41;8.07;13.03;-310.31;-35.29;186.62;0.91;1.64;-0.61;1
2;56.63;-37.13;8.96;232.95;100.44;-1.34;-29.53;-340.52;-192.52;10.76;393.96;15.76;-8.4;114.4;-29.25;76.3;7.53;3.63;-200.88;-35.13;92.59;1.33;5.29;1.01;1
2;-91.21;32.11;8.67;107.99;50.37;-18.64;-10.03;-246.58;-37.13;21.04;61.04;25.56;-9.25;147.6;37.48;105.53;6.39;12.31;-221.71;-25.39;202.55;13;2.03;-0.09;1
2;109.3;-49.99;5;193.24;106.29;-6.19;-5.08;-229.96;-199.66;9.36;355.73;15.5;-7.23;119.23;-1.06;51.29;3.65;4.63;-109.5;-16.33;79.93;1.18;5.77;3.21;1
2;-104.18;30.93;10.78;114.22;46.97;-27.25;-23.46;-308.95;-44.79;19.84;59.9;28.97;-11.21;149.13;-10.84;119.18;8.08;13.41;-227.34;-33.12;229.9;10.25;2.34;-1.02;1
2;47.3;-35.17;8.39;237.18;118.24;-9.02;-22.26;-326.16;-228.46;10.37;376.3;13.33;-8.35;130.45;-9.94;72.55;6.66;5.38;-168.42;-36.22;111.95;0.96;4.3;1.58;1
2;-97.44;37.42;8.45;111.23;48.37;-20.89;-10.26;-240.86;-27.45;20.56;61.24;22.27;-9.62;123.21;20.79;105.84;5.84;12.03;-164.02;-26.95;247.02;11.44;2.55;0.36;1
2;91.12;-48.26;6.9;221.54;91.38;-5.28;-21.78;-330.03;-167.91;13.25;372.61;12.48;-8.75;111.34;-11.72;75.88;6.27;3.77;-177.51;-36.62;181.57;-0.94;5.38;2.17;1
2;-90.58;42.29;9.32;113.32;46.45;-18.65;-9.72;-249.58;-14.65;21.33;63.18;23.82;-9.43;146.37;12.48;96.3;5.98;12.5;-161.44;-24.95;165.99;16.11;2.03;-0.29;1
2;68.84;-45.1;7.49;217.87;111.38;-10.85;-17.09;-273.26;-213.82;11.74;355.83;16.8;-8.75;122.33;-16.54;86.77;5.99;5.93;-209.69;-31.02;115.96;3.61;4.92;2.03;1
2;-92.88;35.23;8.54;99.83;41.68;-18.84;-8.69;-228.31;-16.01;14.99;47.47;24.85;-9.81;106.25;30.07;89.88;5.07;11.78;-145.13;-26.7;232.71;9.43;2.15;-0.38;1
2;85.18;-37.57;8.24;229.69;105.62;-11.17;-13.58;-333.41;-215.52;8.96;391.77;18.49;-9.22;114.92;-24.43;79.45;5.29;6.24;-193.55;-36.81;84.98;2.38;5.56;1.9;1
2;-89.88;25.22;9.79;103.96;41.73;-13.84;-7.4;-243.79;-25.04;10.19;48.82;31.75;-9.36;101.08;24.99;90.95;4.17;12.37;-197.1;-28.07;197.39;16.29;3.01;0.23;1
2;87.77;-47.99;4.68;215.35;115.82;-2.99;-5.47;-231.9;-211.01;12.38;376.42;18.15;-7.32;119.7;14.97;52.76;4.36;4.52;-91.67;-17.47;113.83;1.26;5.4;3.21;1
2;-102.53;38;10.37;114.82;45.73;-24.34;-21.17;-309.66;-38.73;24.21;63.95;29.78;-10.94;138.2;-17.48;122.76;8.01;13.43;-277.31;-34.53;240.11;13.51;1.95;-0.83;1
2;61.44;-39.17;7.81;238.24;104.28;-4.82;-19.79;-330.4;-201.72;19.14;380.53;14.85;-8.5;119.93;-13.45;77.91;6.95;4.22;-219.89;-35.81;164.09;1.95;5.23;1.61;1
2;-91.8;32.06;8.02;99.25;45.17;-13.88;-8.59;-234.33;-22.97;20.55;42.7;25.55;-9.44;128.1;46.51;89.71;5.22;11.61;-146.57;-22.03;217.68;11.39;2.67;-0.29;1
2;95.32;-28.08;8.4;236.22;92.31;-5.75;-22.22;-357.21;-150.06;24.6;396.9;15.55;-9.15;155.93;-24.46;86.34;7.41;4.93;-207.87;-37.58;185.94;0.82;6.12;1.23;1
2;-75.69;31.9;10.17;103.32;43.79;-14.84;-8.09;-274.61;-12.33;27.51;51.75;31.35;-9.28;178.32;27.63;90.07;6.24;12.86;-176.57;-25.28;152.76;18.52;3.34;-0.23;1
2;43.65;-33.57;8.3;213.53;102.11;-5.84;-26.82;-342.12;-220.95;21.57;327.57;17.59;-8.08;111.39;-20.98;96.51;7.19;4.86;-306.82;-34.83;164.07;1.98;5.19;1.76;1
2;-89.99;33.04;8.87;97.93;43.93;-15.55;-7.34;-215.4;-17.85;30.54;46.74;35.36;-9.67;168.02;18.24;109.78;6.86;12.57;-265.65;-25.51;226.32;10.47;1.35;0.09;1
2;71.79;-46.16;7.74;222.45;103.77;-6.17;-23.6;-328.88;-208.24;20.55;355.1;16.59;-8.79;133.11;-6.98;84.41;8.07;5.04;-154.17;-34.3;155.32;0.15;5.67;2.15;1
2;-86.49;37.31;9.81;108.73;47.4;-17.08;-8.57;-267.1;-19.37;21.71;42.75;27.42;-9.52;143.3;41.03;95.54;5.4;12.33;-150.94;-26.97;242.76;13.69;2.9;0.08;1
2;72.69;-28.15;8.11;246.99;99.58;-12.74;-19.51;-329.2;-178.39;15.78;412.21;15.03;-8.63;129.01;-13.97;95.43;6.07;6.18;-201.62;-36;149.75;-0.47;5.03;1.14;1
2;-87.07;44.08;9.63;111.34;52.63;-18.32;-9.6;-250.45;-17.19;22.61;57.75;26.59;-9.34;157.62;35.43;99.94;5.8;12.3;-181.31;-25.28;223.15;14.56;3.34;0.01;1
2;64.45;-31.65;8.76;236.55;122.39;-5.46;-23.92;-323.93;-220.22;21.29;396.53;16.26;-8.29;140.25;-21.38;70.89;7.32;4.78;-208;-34.24;107.15;1.67;5.46;1.71;1
2;-94.84;38.54;8.96;106.09;44.65;-11.67;-5.29;-252.95;-12.63;21.22;39.71;30.94;-9.63;134.83;27.34;86.89;4.79;11.15;-188.45;-26.06;176.47;11.94;2.52;0.22;1
2;84.75;-54.92;7.48;223.97;103.08;-6.45;-22.2;-378.26;-186.04;10.72;369.56;21.51;-8.34;125;-16.53;103.43;7.15;5.76;-237.2;-35.82;174.08;-1.81;5.39;1.56;1
2;-96.72;42.97;8.56;116.58;47.1;-16.17;-9.26;-277.38;-15.77;22.77;59.99;27.41;-9.54;140.59;29.58;101.4;6.62;12.31;-184.66;-24.01;202.58;10.54;2.28;0.34;1
2;96.86;-41.22;7.07;231.86;101.7;-5.9;-14.76;-282.47;-200.01;9.04;381.26;16.72;-8.66;116.66;-31.84;75.17;5.98;5.16;-212.05;-34.57;139.64;1.11;5.24;1.72;1
2;-94.31;27.24;9.31;109.54;45.71;-14.87;-8.75;-268.54;-24.53;10.62;40.88;25.1;-10.36;109.56;28.28;95.48;4.72;11.94;-173.24;-26.67;199.02;13.89;2.69;0.16;1
2;64.93;-34.83;8.09;240.61;105.2;-17.9;-9.55;-299.48;-192.99;10.95;390.85;19.01;-8.76;110.08;-16.74;72.79;5.62;7.21;-196.96;-35.29;118.77;2.36;4.59;1.99;1
2;-105.7;35.12;10.51;111.55;47.71;-16.59;-7.87;-260.44;-26.79;8.6;57.56;36.45;-9.26;130.48;20.45;98.8;3.77;13.34;-255.32;-29.65;216.13;17.98;2.63;-0.04;1
2;91.11;-49.01;7.91;223.65;107.64;-7.51;-20.83;-402.68;-215.46;10.35;358.14;18.69;-8.31;126.76;-13.69;61.88;6.26;5.63;-182.85;-35.76;81.48;1.83;5.78;2.07;1
2;-89.27;35.14;11.62;117.89;52.46;-19.75;-7.78;-268.77;-25.29;21.68;60.2;35.12;-9.28;161.69;17.64;106.07;5.42;13.68;-190.28;-29.56;234.5;22.67;3.54;0.86;1
1;-97.97;28.19;7.25;66.18;29.37;-14.1;-7.36;-227.21;-3.75;9.06;-10.83;24.33;-10.91;117.52;4.79;64.25;3.41;8.14;-217.38;-22.36;112.16;12.89;3.11;0.55;0
1;105.66;-62.88;7.27;184.93;85.77;-14.95;-23.85;-307.05;-167.09;12.94;334.01;20.75;-8.99;159.23;1.97;80.72;5.93;5.41;-243.63;-38.82;212.94;-1.56;5.48;2.38;0
1;-105.24;18.7;9.12;56.04;26.78;-16.88;-4.98;-233.15;-0.91;9.66;-37.49;32.23;-8.74;155.85;2.52;87.53;2.63;8.12;-282.12;-28.49;87.03;16.74;6.01;1.39;0
1;66.02;-21.92;7.53;185.24;84.91;-11.1;-12.2;-304.46;-169.85;9.34;337.97;14.31;-10.38;97.83;2;69.59;4.91;7.23;-235.77;-36.46;107.72;0.46;3.39;0.69;0
1;-98.68;34.76;7.23;52.61;27.56;-12.73;-8.52;-226.72;8.29;6.57;-28.17;16.8;-11.19;137.02;-0.85;64.11;3.44;7.4;-146.72;-25.19;87.12;12.82;2.95;0.01;0
1;122.56;-69.43;6.14;176.76;79.65;-17.69;-10.88;-297.84;-168.25;10.39;307.7;15.24;-7.99;70.2;9.2;73.67;3.73;6.45;-138.33;-32.74;173.62;1.12;5.15;2.79;0
1;-101.65;23.24;7.88;64.65;24.49;-10.95;-2.94;-232.87;7.13;7.55;-10.92;21.9;-9.92;118.66;3.25;50.28;1.73;5.19;-116.55;-24.26;99.18;12.21;6.74;1.69;0
1;51.94;-27.55;7.32;183.42;91.15;-19.34;-10.17;-341.8;-178.97;9.91;305.28;27.41;-10.41;115.29;-2.37;95.55;4.65;9.46;-205.28;-38.45;200.67;-1.12;2.81;0.78;0
1;-93.95;29.83;7.21;65.11;26.48;-18.95;-10.7;-215.19;1.24;18.48;12.49;25.14;-11.17;127.23;0.45;69.8;4.74;9.18;-199.82;-23.26;112.83;13.47;2.78;0.59;0
1;113.09;-65.87;7.25;187.32;77.38;-4.24;-14;-342.83;-165.8;10.47;326.63;22.7;-8.86;67.25;3.26;113.92;4.86;5.21;-245.81;-37.9;238.29;-1.88;5.79;2.37;0
1;-96.92;21.3;9.07;68.24;30.44;-14.37;-6.33;-262.08;-0.88;8.29;-36.15;27.85;-9.68;132.76;6.94;90.8;2.53;7.52;-251.68;-24.32;165.07;17.78;5.96;1.36;0
1;47.99;-33.13;8.11;182.34;88.9;-14.57;-15.36;-337.47;-182.06;11.4;306.81;19.47;-10.26;111.88;-6.04;100.52;5.59;8.28;-235.83;-38.32;188.8;-0.49;3.09;0.72;0
1;-96.34;32.96;7.64;49.76;37.35;-14.46;-11.06;-206.16;-6.58;6.41;-40.9;24.63;-11.18;134.44;6.51;80.5;3.45;9.05;-222.5;-27.48;126.11;12.4;2.27;-0.18;0
1;114.09;-62.36;6.3;181.93;77.76;-10.68;-13.04;-319.96;-162.69;9.88;312.94;29.07;-8.88;57.61;-14.68;87.91;4.5;7.47;-182.56;-27.84;151.65;0.79;6.68;2.36;0
1;-101.02;15.44;4.69;57.57;24.6;-13.38;-0.76;-219.54;-4.31;9.32;-10.55;14.24;-10.27;106.24;14.8;73.04;2.13;4.86;-201.83;-15.89;151.55;6.17;5.4;2.04;0
1;60.55;-21.37;7.99;194.9;79.98;-14.25;-18.02;-310.04;-143.85;10.88;352.12;24.93;-10.07;93.66;-4.95;90.41;5.32;8.54;-260.96;-37.47;182.99;1.03;3.54;0.85;0
1;-94.87;28.61;7.46;54.93;36.67;-17.2;-8.62;-215.05;-13.37;9.32;-29;25.31;-11.08;148.27;-12.33;100.87;3.63;10.03;-254.19;-25.56;144.61;12.44;1.82;0.03;0
1;117.52;-82.82;8.01;202.18;89.76;-7.62;-18.99;-380.87;-196.09;10.77;358.33;32.83;-9.23;44.8;15.29;141.6;5.62;8.14;-262.93;-38.75;317.03;-1.96;6.62;2.77;0
1;-91.22;26.82;7.99;59.34;35.12;-16.53;-6.29;-247.98;-1.47;11.35;-26.16;21.17;-10.12;168.84;7.57;92.39;3.23;8.55;-297.49;-29.93;222.89;14.88;2.84;0.93;0
1;78.46;-41.28;7.07;197.03;83.84;-10.16;-11.88;-310.83;-166.84;10.46;344.48;15.79;-10.3;131.08;-8.64;86.3;4.98;5.96;-247.56;-36.57;124.34;-1.59;4.41;2.05;0
1;-99.97;26.54;9.74;57.6;35.24;-17.88;-4.27;-231.48;-12.74;9.34;-40.2;20.36;-9.74;143.1;7.69;75.35;2.75;9.29;-156.18;-30.02;151.9;19.94;3.31;0.88;0
1;80.99;-41.44;7.93;194.38;95.19;-12.38;-13.72;-266.91;-181.45;11.5;332.25;18.78;-9.54;88.29;-4.92;89.7;5.64;7.67;-168.17;-37.13;201.18;2.64;5.52;1.22;0
1;-89.77;15.75;7.14;55.61;29.03;-13.95;-2.71;-223.56;-15.94;9.7;-22.8;19.82;-9.97;119.81;7.96;65.13;3.07;7.52;-186.12;-27.58;91.33;12.88;2.86;1.02;0
1;83.64;-33.79;7.64;201.55;92.68;-14.64;-10.25;-303.49;-171.07;8.91;346.15;13.36;-10.27;105.68;3;66.6;4.29;5.97;-149.6;-36.38;138.33;-2;4.55;1.24;0
1;-92.92;27.19;7.91;85.31;30.68;-19.59;-6.36;-247.7;-10.44;8.42;48.49;23.79;-9.73;123.46;3.62;61.7;3.5;10.95;-176.83;-24.55;90.45;13.54;2.71;0.46;0
1;85.52;-45.41;8.68;209.5;97.98;-11.02;-20.84;-307.44;-203.42;9.77;355.7;22.53;-9.71;118.52;4.12;124.84;6.12;6.14;-333.75;-36.96;175.77;-1.24;5.74;1.11;0
1;-101.42;37.1;9.04;58.96;34.77;-13.47;-9.44;-217.81;3.11;7.6;-49.11;30.2;-10.2;172.98;17.19;67.57;4.54;8.86;-175.92;-29.98;121.66;14.79;3.7;0.87;0
1;91.13;-49.65;7.79;196.44;97.09;-12.73;-14.88;-288.91;-183.94;9.46;353.79;16.7;-9.74;120.74;-17.55;98.52;5.11;6.87;-209.09;-36.53;201.23;0.39;4.67;1.14;0
1;-103.93;27.78;7.28;59.56;27.48;-12;-9.62;-233.87;3.7;9.67;-43.68;13.07;-11.18;125.2;20.39;64.43;3.52;6.39;-188.58;-27.4;98.83;9.75;2.36;0.59;0
1;91.96;-39.6;7.19;191.37;80.87;-10.97;-8.03;-307.79;-162.15;8.01;318.17;16.92;-9.92;94.96;-23.11;62.12;3.95;5.86;-171.6;-36.96;91.88;-1.87;5.62;1.91;0
1;-96.35;21.63;7.1;55.08;34.27;-14.56;-10.31;-209.3;-14.86;7.04;-25.88;23.66;-10.49;113.88;26.27;84.73;3.37;8.89;-161.8;-21.23;176.44;13.68;2.81;0.29;0
1;81.01;-47.53;7.77;193.14;98.21;-14.78;-9.93;-335.77;-189.62;17.67;317.3;22.4;-9.93;110.68;-13.08;88.03;4.98;7.11;-197.68;-35.2;175.81;0.28;5.35;2.39;0
1;-95.34;31.83;7.7;59.09;28.19;-16.43;-9.97;-220.09;4.03;11.66;-34.19;29.52;-10.39;144.6;9.8;63.73;3.63;8.55;-193.17;-21.28;94.81;15.34;2.74;0.16;0
1;93.23;-42.22;5.8;194.11;74.54;-11.06;-10.75;-357.81;-137.73;11.59;326.89;37.09;-9.25;94.97;-28.53;76.75;4.55;7.81;-225.39;-25.9;104.1;-1.65;7.46;2.16;0
1;-90.25;23.28;3.35;59.07;23.75;-17.96;-4.71;-236.5;1.13;7.84;-15.11;16.69;-10.49;92.08;8.95;69.34;3;8.43;-167.7;-18.04;186.71;-2.29;2.57;1.36;0
1;87.66;-45.9;8.44;209.45;91.86;-12.94;-14.95;-335.97;-186.28;10.69;378.13;20.52;-10.29;87.87;-5.98;85.5;5.82;6.83;-142.08;-35.57;204.45;-1.86;6.07;1.57;0
1;-88.62;13.08;7.05;71.41;30.86;-17.66;-4.94;-218.43;-19.92;6.48;-10.07;23.39;-10.02;100.48;17.23;79.66;2.93;9.4;-212.4;-21.74;130.35;10;2.32;0.47;0
1;72.76;-45.01;7.01;203.97;94.09;-8.83;-7.6;-360.67;-183.13;11.26;343.63;27.71;-10.37;88.1;-13.18;77.13;4.71;6.91;-187.4;-29.94;167.97;-0.4;5.89;1.76;0
1;-97.83;27.65;5.7;51.13;27.16;-14.45;-9.19;-238.65;-5.61;6.27;-47.55;30.83;-11.09;101.62;17.02;51.2;3.92;9.05;-148.18;-23.67;81.14;8.38;2.41;0.29;0
1;93.8;-60.55;8.42;202.18;97.56;-16.07;-12.94;-300.9;-201.95;10.59;366.66;17.66;-9.59;115.35;-13.12;73.82;4.82;6.6;-182.62;-37.13;108.5;0.94;6.02;2.53;0
1;-101.24;25.57;6.29;58.76;31.19;-16.02;-4.21;-227.91;-10.69;6.67;-34.55;31.24;-10.46;124.32;1.17;78.09;3.04;10.24;-210.46;-24.01;102.31;8.53;3.09;0.97;0
1;69.9;-44.06;8.65;198.95;104.7;-12.24;-9.51;-356.19;-204.8;10.46;340.54;26.2;-10.21;126.01;-5.46;97.15;4.84;9.03;-186.19;-37.33;223.44;1.01;5.74;1.55;0
1;-95.41;24.3;6.74;66.7;29.24;-15.02;-9.3;-223.68;-5.04;5.64;-27.4;24.76;-10.42;106.31;3.37;59.28;3.3;9.05;-181.18;-22.58;97.97;8;2.47;0.64;0
1;86.12;-59.52;6.83;203.74;113.92;-15.52;-12.9;-319.86;-229.55;11.47;351.8;22.67;-9.45;98.17;1.23;90.92;5.23;7.79;-163.7;-22.06;145.64;1.5;5.89;2.67;0
1;-87.07;31.71;5.93;71.41;27.52;-18.61;-7.36;-213.03;-0.88;8.73;6.84;26.87;-10.32;113.79;1.39;69.45;3.52;9.53;-189.87;-16.63;113.36;6.97;2.26;1.01;0
1;80.2;-49.95;8.7;204.3;97.96;-12.46;-13.51;-316.59;-204.82;10.45;355.28;21.61;-9.91;92.54;-12.62;101.68;5.29;7.71;-175.19;-37.59;197.52;-0.53;6.25;2.09;0
1;-91.01;19.6;8.39;66.94;28.16;-16.31;-5.15;-219.16;-12.81;5.81;-12.15;27.49;-9.63;119.65;3.82;76.46;2.69;9.65;-224.59;-23.59;130.41;16.44;2.46;0.53;0
1;70.62;-59.38;9.02;210.28;106.77;-6.89;-15.29;-298.13;-205.6;12.83;339.68;16.78;-10;141.52;11.12;95.97;5.38;4.89;-311.05;-37.12;175.6;1.49;4.71;2.55;0
1;-102.24;45.14;9.12;68.03;35.75;-15.56;-8.89;-218.09;7.16;9.42;-7.36;18.4;-10.6;162.39;4.36;58.26;4.01;8.47;-187.01;-30.38;85.06;13.55;2.09;0.18;0
1;86.74;-46.24;8.52;204.21;103.99;-11.86;-11.61;-297.52;-200.41;10.18;339.6;17.35;-9.2;114.03;-10.76;89.2;4.9;6.67;-224.75;-36.58;123.62;2.42;5.59;2.37;0
1;-94.91;31.91;8.02;58.14;30.77;-13.97;-4.42;-213.66;1.48;6.35;-29.89;23.99;-9.97;144.05;4.82;67.08;2.46;8.74;-183.61;-21.18;109.61;17.73;3.29;1.06;0
1;72.19;-33.56;7.87;198.88;102.97;-8.06;-13.96;-316.53;-202.55;10.15;332.96;22.85;-9.08;111.84;-8.56;65.59;5.16;6.56;-203.03;-37.24;179.32;-0.35;6.35;2.01;0
1;-83.97;23.79;6.52;51.75;30.23;-14.12;-5.27;-197.23;-11.73;9.39;-27.71;21.36;-9.67;129.28;16.06;75.62;2.45;8.15;-247.76;-24.99;112.73;8.2;2.11;0.84;0
1;80.26;-34.64;7.88;194.3;89.73;-8.82;-10.72;-348.23;-178.85;11.36;333.83;25.35;-9.79;109.54;-15.86;79.81;5.63;7.35;-137.3;-36.51;155.71;-0.15;6.71;1.96;0
1;-101.63;21.08;7.34;59.58;31.95;-18.65;-8.42;-229.17;-10.54;6.79;-34.3;29.64;-10.94;123.99;1.04;82.09;3.63;10.73;-247.88;-22.68;129.05;12.67;2.48;0.63;0
1;90.79;-57.36;8.4;204.63;95.72;-8.88;-6.79;-321.91;-187.5;12.64;332.88;18.91;-9.59;94.2;4.86;86.08;4.61;6.18;-153.01;-34.88;195.37;0.31;5.72;3.03;0
1;-93.4;30.15;8.55;69.75;33.55;-15.55;-6.57;-229.8;-3.75;7.54;-17.82;27.87;-10.19;127.44;3.83;59.23;3.03;9.5;-175.5;-24.64;87.19;17.49;3.13;0.34;0
1;80.43;-48.3;8.43;202.68;112.29;-12.16;-12.8;-267.31;-223.17;10.97;340.66;17.99;-10.05;123.32;1.03;91.82;5.36;7.45;-164.62;-36.24;205.21;0.9;4.71;2.09;0
1;-99.15;29.8;8.62;56.24;33.06;-16.55;-5.12;-244.45;-4.2;5.69;-36.42;23.93;-9.77;142.93;2.42;75.93;2.31;9.19;-181.23;-23.34;118.16;21.16;2.93;1.08;0
1;73.14;-55.94;8.63;206.43;118.66;-14.56;-7.11;-289.51;-231.14;9.79;348.81;14.87;-10.31;145.87;1.95;99.23;4.9;6.91;-199.17;-36.64;211.17;1.43;4.08;2.11;0
1;-101.08;34.52;9.36;64.36;31.73;-19.05;-7.05;-222.57;-5.34;7.11;-12.2;27.57;-10.08;128.11;3.04;56.79;2.91;10.46;-161.99;-27.46;74.66;20.34;2.76;0.34;0
1;83.53;-57.47;7.5;192.49;103.37;-7.89;-19.31;-275.54;-197.01;10.43;334.37;24.39;-9.06;119.55;-8.42;117.36;5.71;7.03;-332.84;-36.35;176.54;0.13;5.83;1.5;0
1;-96.05;35.26;7.2;58.76;32.88;-18.22;-4.75;-229.2;-2.23;11.38;-16.08;22.48;-10.44;156.65;12.35;95.46;3.71;8.85;-247.58;-30.21;192.61;13.07;2.45;1.15;0
1;69.83;-53.33;8.56;200.76;99.89;-9.99;-13.62;-301.22;-207.54;9.87;329.1;15.34;-9.81;119.02;-7.2;87.02;5;5.25;-246.91;-36.16;156.13;-0.8;4.99;2.03;0
1;-104.38;37.98;7.9;49.07;36.3;-18.95;-9.93;-215.69;0.79;6.63;-46.13;28.16;-11.58;143.74;-9.54;90.98;3.87;9.99;-230.79;-23.15;127.51;16.53;3.32;-0.17;0
1;139.04;-81.53;8.9;202.27;91.31;-8.07;-20.57;-331.11;-210.17;10.29;373.18;19.32;-7.48;84.46;6.6;96.54;5.95;5.99;-212.4;-37.47;203.26;2.25;6.43;2.95;0
1;-91.76;13.93;8.83;54.52;35.02;-10.03;-0.27;-205.77;-20.77;8.44;-21.01;23.61;-8.88;153.07;5.74;96.39;2.64;5.91;-270.93;-28.33;144.77;16.05;7.05;2.12;0
1;41.8;-23.99;7.1;196.24;90.82;-18.2;-7.94;-309.14;-183.04;7.91;349.13;15.02;-10.7;98.02;4.12;94.42;4.25;8.31;-225.76;-34.34;221.53;-0.1;2.44;1.03;0
1;-96.83;39.36;7.09;68.2;37.46;-14.76;-6.96;-225.62;-11.57;8.04;21.48;31.91;-11.37;110.77;-0.39;50.83;3.56;10.18;-122.78;-21.29;130.67;14.18;2.96;0.22;0
1;129.29;-88.94;8.27;189.72;100.68;-15.31;-8.69;-349.27;-215.13;11.24;346.04;18.89;-8.29;105.94;-7.49;105.97;3.91;7.19;-168.55;-38.19;219.07;-0.2;5.39;3.93;0
1;-105.2;26.82;9.06;62.54;33.63;-18.01;-7.1;-252.48;-5.69;5.54;-32.36;34.17;-10.42;150.03;-1.6;76.94;3.33;10.57;-256.9;-23.5;99.81;22.12;2.64;0.39;0
1;90.43;-65.12;7.79;195.7;108.39;-11.69;-13.82;-320.42;-206.19;12.06;336.95;17.49;-9.12;151.31;8.69;94.7;5.05;5.43;-292.1;-37.44;170.41;0.01;5.31;2.97;0
1;-110.75;33.93;10.63;66.95;35.07;-14.99;-5.88;-229.44;-1.47;7.42;-16.58;32.81;-10.25;177.29;0.75;67.49;3.15;10.24;-186.31;-29.7;66;20.7;3.11;0.55;0
1;84.03;-43.95;8.4;207.99;98.48;-6.26;-16.49;-334.77;-173.68;10.04;348.69;16.06;-8.95;163.01;0.19;87.93;4.91;5.26;-232.93;-37.53;159.95;2.61;4.8;2.06;0
1;-101.28;38.81;11.05;62.07;37.45;-17.74;-8.77;-263.86;0.18;7.02;-30.17;25.13;-10.3;183.73;-1.5;77.12;4.26;9.05;-218.38;-32.21;103.03;23.57;2.42;0.51;0
1;91.59;-57.87;9.29;222.65;104.18;-6.19;-17.76;-304.48;-204.81;11.26;387.86;15.25;-9.33;128.19;-15;101.72;5.78;5.33;-197.85;-37.94;205.26;2.1;5.14;2;0
1;-96.92;21.69;9.11;62.15;32.31;-18.71;-6.61;-249.93;-11.12;8.27;-34.46;20.16;-9.86;125.93;7.44;60.14;2.89;8.58;-158.75;-26.79;107.22;16.38;3.06;1.06;0
1;78.17;-54.72;9.05;205.45;97;-13.69;-11.33;-326.81;-200.4;12.73;363.11;19.42;-10.18;96.95;-6.44;107.26;5.64;7.31;-178.83;-37.83;275.17;-0.23;5.53;2.27;0
1;-91.86;27.03;8.41;62.55;25.78;-14.8;-6.55;-214.07;-4.08;6.05;-20.27;29.69;-9.96;129.98;-7.67;83.82;3.02;9.35;-219.6;-22.15;85.59;17.1;2.84;0.74;0
1;86.52;-70.47;8.41;200.09;100.3;-6.82;-15.32;-328.87;-208.32;11.09;355.51;24.81;-9.71;62.67;12.89;113.68;5.69;6.6;-262.6;-36.58;239.47;0.5;6.64;2.42;0
1;-97.68;40.96;7.08;69.27;29.96;-19.55;-8.02;-247.25;10.68;8.45;7.74;22.84;-11.11;141.18;-0.31;65.5;3.77;9.3;-185.12;-26.4;151.93;9.5;2.57;0.28;0
1;113.25;-57.78;6.45;201.85;76.37;-3.25;-9.84;-366.05;-155.99;10.04;367.34;27.65;-8.82;62.73;-16.83;81.09;4.44;6.9;-105.27;-34.48;156.15;-3.52;7.22;2.63;0
1;-92.11;18.69;6.05;64.03;25.99;-25.9;-3.83;-258.38;-3.94;6.75;-16.23;29.87;-10.1;105.38;3.04;90.25;2.83;11.28;-246.41;-26.08;158.51;9.49;3.09;1.18;0
1;70.76;-46.31;7.87;211.66;95.88;-9.12;-6.89;-381.71;-197.46;10.07;356.8;29.29;-10.15;88.08;7.34;88.94;4.34;7.88;-128.34;-30.21;244.69;-0.26;6.42;2.2;0
1;-91.93;31.42;5.53;76.15;23.23;-20.59;-5.69;-238.49;4.14;7.19;-1.48;32.69;-10.24;115.88;0.73;63.87;3.43;11.29;-189.67;-18.36;106.54;8.94;2.95;0.86;0
1;84.03;-45.54;9.5;221.5;92.33;-15.71;-7.42;-369.45;-181.87;10.37;354.46;24.09;-9.88;115.32;-4.82;72.44;4.47;7.42;-129.46;-38.82;149.7;-0.13;6.69;2.58;0
1;-81.81;23.1;7.58;79.11;28.82;-19.13;-10.37;-240.64;-6.02;6.28;16.73;36.92;-9.77;110.7;-0.43;78.58;3.77;11.51;-224.13;-23.58;146.72;16.25;3.08;0.42;0
1;64.62;-55.29;7.06;204.83;101.28;-15.9;-7.98;-396.8;-196.08;9.12;312.28;34.3;-9.87;100.48;4.52;112.53;4.02;8.25;-207.84;-29.24;229.9;-2.66;6.81;2.78;0
1;-93.97;35.9;6.62;79.72;27.49;-20.27;-5.01;-229.44;-1.3;6.77;-18.33;32.3;-10.89;101.18;0.71;57.65;3.04;10.18;-178.67;-25.18;65.76;7.02;1.68;0.53;0
1;93.7;-48.84;8.41;211.21;94.32;-12.53;-6.4;-341.45;-182.21;10.48;337.72;17.61;-9;120.06;4.45;55.66;3.45;5.21;-151.56;-37.1;112.48;-0.5;6.63;2.88;0
1;-98.04;30.2;8.26;66.31;32.69;-18.05;-7.26;-230.58;-2.53;5.58;-20.08;35.12;-10.67;116.45;0.87;62.55;3.39;10.74;-200.84;-23.2;93.02;17.14;2.71;0.29;0
1;91.23;-57.39;8.45;214.21;104.09;-14.54;-4.44;-388.99;-204.98;11.39;339.88;27.82;-9.62;119.57;7.55;72.89;3.66;7.88;-82.5;-36.91;163.25;-0.02;6.63;3.04;0
1;-98.47;35.85;8.23;63.23;33.44;-26.04;-5.42;-245.89;-0.54;5.14;-23.79;38.27;-10.63;151.93;-15.37;79.19;3.12;10.95;-283.31;-22.62;92.97;22.04;2.83;0.37;0
1;106.85;-62.78;7.19;196.88;85.53;-14.52;-8.1;-391.33;-182.81;13.12;332.4;32.08;-9.66;93.85;8.8;138.65;4.87;9.04;-210.73;-36.17;311.9;-2.35;6.67;2.98;0
1;-102.39;27.22;6.89;61.53;30.03;-18.52;-6.56;-228.04;-13.33;5.73;-37.24;32.38;-11.09;118.96;-4.6;68.28;3.16;9.49;-191.99;-21.46;99.42;13.18;2.94;0.42;0
1;119.8;-76.33;7.35;191.85;84.68;-10.31;-13.8;-310.35;-175.68;12.68;355.48;18.31;-8.94;145.41;10.42;112.08;5.25;4.62;-241.82;-37.86;238.27;-3.01;5.87;3.31;0
1;-96.23;40.64;9.29;54.18;35.31;-17.04;-8.36;-213.44;-5.43;9.51;-37.73;26.76;-10.57;175.04;11.4;63.68;3.87;8.74;-183.24;-31.33;102.16;15.19;2.15;0.11;0
1;98.57;-41.68;7.96;212.35;86.33;-12.38;-12.97;-317.57;-168.82;10.9;378.09;16.59;-9.63;108.89;-26.3;86.48;5.39;6.32;-174.15;-37.58;153.77;-0.86;6.06;1.91;0
1;-92.63;15.06;8.41;60.5;35.65;-20.27;-4.49;-211.44;-13.88;5.88;-31.35;25.68;-9.82;128.54;5.74;75.66;2.4;9.8;-199.27;-25.02;148.78;16.87;2.76;1.19;0
1;78.77;-47.1;7.88;202.24;89.41;-7.91;-10.45;-298.91;-187.92;11.87;348.39;20.27;-10;68.5;8.25;112.6;5.29;5.51;-247.67;-36.88;270.17;-1.43;5.03;1.57;0
1;-102.89;36.31;7.84;65.15;24.47;-16.08;-6.81;-239.98;2.34;9.26;-28.71;27.74;-10.93;130.02;15.95;49.26;3.66;8.98;-76.61;-24.79;63.73;15.23;3.26;0.65;0
1;72.19;-37.61;9.36;214.91;97.41;-21;-6.92;-235.29;-199.5;9.87;381.54;28.82;-8.65;107.31;-21.06;78.49;3.97;9.36;-182.59;-32.99;116.04;14.21;5.53;1.92;0
1;-94.89;22.78;4.97;45.02;21.86;-15.56;-5.92;-218.53;-5.6;7.88;-42.58;18.8;-11.55;75.49;21.11;54.27;2.73;7.4;-82.41;-22.99;127.53;2.85;2.87;0.83;0
1;85.68;-49.43;8.99;201.92;105.14;-14.26;-11.57;-336.28;-219.89;11.02;347.76;19.32;-9.92;150.9;9.93;74.62;5.44;6.24;-169.33;-37.85;175.55;1.54;5.28;1.96;0
1;-91.82;29.6;10.06;72.38;30.51;-15.28;-17;-234.91;-3.51;11.54;-13.71;13.97;-10.31;167.77;2.64;58.08;4.51;7.48;-180.39;-28.01;67.05;21.37;2.33;0.06;0
1;76.36;-39.71;9.03;199.07;94.27;-18.28;-13.66;-388.16;-188.69;11.47;302.31;22.59;-9.7;136.08;-6.33;83.02;5.02;7.59;-149.03;-39.34;176.63;-0.78;5.6;1.54;0
1;-102.04;21.51;10.53;63.99;34.78;-22.47;-4.21;-228.44;-14.19;8.87;-46.56;37.08;-10.1;162.98;-10.73;88.32;3.61;11.39;-310.85;-29.73;90.18;25.73;2.18;0.43;0
1;91.11;-52.55;8.4;193.73;92.69;-7.76;-6.08;-342.46;-200.42;9.73;309.81;17.55;-9.08;100.32;28.25;93.14;3.91;5.05;-223.21;-36.32;203.33;-0.99;6.84;2.92;0
1;-87.65;35.11;6.48;55.93;22.83;-14.97;-3.42;-228.54;6.61;5.89;-31.56;32.68;-9.93;122.86;-0.97;44.75;2.24;8.89;-135.9;-21.69;64.61;12.63;3.73;1.1;0
1;74.54;-41.58;8.75;206.26;94.96;-16.77;-6.57;-343.63;-184.08;9.88;333.65;18.26;-10;124.56;7.6;59.29;4.33;6.22;-102.68;-33.19;166.88;-0.55;5.5;2.36;0
1;-88.83;31.47;6.3;61.88;24.33;-17.18;-4.43;-239.36;10.24;5.75;-17.84;36.22;-9.78;130.81;-8.33;74.57;2.82;10.58;-232.65;-17.22;101.57;15.2;3.59;0.84;0
1;73.26;-46.47;9.48;202.21;103.4;-15.2;-8.49;-354.32;-203.9;11.91;324.07;16.56;-9.7;130.26;12.36;78.31;4.46;7.06;-137.38;-37.23;192.55;0.69;5.83;2.35;0
1;-98.66;35.47;7.98;68.67;36.17;-16.32;-6.26;-235.42;1.93;7.34;-14.78;35.05;-10.93;135.42;-1.97;70.41;3.22;10.46;-238.74;-22.44;89.47;16.49;2.6;0.2;0
1;111.7;-64.45;7.87;194.97;91.08;-12.88;-6.8;-350.59;-187.09;10.8;338.54;13.94;-8.46;134.83;5.41;78.92;3.83;5.52;-184.64;-37.71;171.13;-0.31;5.81;2.85;0
1;-109.05;34.58;10.25;74.01;33.58;-16.9;-5.43;-253.55;6.08;6.55;-31.22;36.39;-10.59;149.87;-1.41;66.24;3.15;10.8;-167.94;-26.92;107.22;24.04;3.59;0.4;0
1;109.31;-57.97;8.55;204.04;93.86;-3.98;-11.95;-318;-218.53;11.43;346.31;20.57;-7.96;92.86;-10.58;89.73;5.09;5.87;-187.64;-37.17;168.5;1.62;6.98;2.74;0
1;-97.97;18.36;8.61;64.8;28.18;-14.69;-6.88;-224.78;-11.12;6.26;-32.16;25.25;-10.12;106.05;9.09;57.6;3.1;8.51;-138.02;-25.98;94.59;18.05;3.6;0.56;0
1;88.17;-62.1;8.11;195.26;91.33;-8.79;-12.12;-385.91;-166.27;11.75;306.1;20.34;-9.05;116.21;-0.01;82.82;4.47;5.2;-234.79;-38.76;159.89;-0.56;5.98;2.82;0
0;-86.92;30.48;5.89;50.57;30.96;-9.98;-5.05;-175.09;-11.27;13;-21.6;20.37;-11.64;89.14;21.41;81.86;3.55;7.39;-171.25;-36.56;116.89;-0.63;0.45;-0.15;1
0;79.69;-38.78;5.17;192.06;67.72;-11.32;-7.71;-211.6;-146.15;4.77;364.03;18.1;-11.06;86.14;-22.2;126.14;3.86;8.23;-220.46;-28.95;273.52;-1.02;3.78;0.28;1
0;-100.86;34.69;4.66;43.03;32.1;-13.43;-7.2;-184.55;-1.44;12.01;-38.86;26.89;-11.98;103.33;19.55;67.72;3.71;8.19;-184.69;-34.09;112.38;-4.56;-1.33;-0.56;1
0;91.77;-51.94;6.64;190.55;76.83;-9.27;-6.36;-182.19;-163.31;7.28;344.87;22.37;-10.36;83.04;-14.15;114.52;3.83;6.77;-242.07;-32.21;178.93;0.52;4.4;0.94;1
0;-95.59;39.27;4;31.2;28.9;-10.43;-6.91;-167.14;-20.96;12.06;-46.22;18.68;-11.51;92.4;23.49;67.06;4.16;6.93;-159.59;-32.6;80.13;-6.42;-1.67;0.16;1
0;83.49;-40.19;6.66;195.64;73.63;-11.64;-7.45;-245.9;-168.2;4.88;334.83;19.05;-11.12;91.4;-16.99;154.89;3.4;8.71;-268.89;-32.11;374.7;0.28;4.05;0.39;1
0;-94.62;36.66;4.95;43.89;28.63;-10.03;-4.31;-189.11;2.07;7.3;-36.8;17.92;-11.42;102.54;19.41;54.27;2.5;6.58;-138.64;-33.39;96.94;-0.34;-0.38;-0.2;1
0;83.37;-47.49;6.03;184.47;77.02;-11.71;-6.6;-208.4;-157.92;6.37;313.21;18.11;-10.56;99.92;-16.31;140.38;3.23;7.23;-314.12;-28.34;275.74;-0.05;3.29;0.59;1
0;-96.79;42.4;5.49;45.95;31.72;-10.73;-7.07;-174.15;-13.79;13.25;-24.11;29.48;-11.6;106.99;26.81;58.35;4.25;9.01;-118.2;-34.76;104.71;-0.18;0.19;-0.61;1
0;86.7;-45.64;6.68;201.03;81.23;-10.28;-13.6;-226.03;-152.27;5.92;353.61;25.23;-10.29;92.91;-20.52;113.98;4;6.14;-345.5;-32.91;147.93;0.3;3.9;0.54;1
0;-100.91;42.79;5.51;47.19;28.15;-21.09;-8.79;-185.8;2.9;13.65;-38.47;16.67;-12.32;95.3;25.36;88.27;4.54;8.19;-214.06;-36.46;104.72;-3.7;-1.92;0.4;1
0;105.51;-35.12;5.99;205.78;79.03;-6.7;-8.16;-214.43;-150.66;5.9;382.24;14.51;-10.25;94.53;-12.26;115.74;3.74;5.31;-260.95;-26.89;144.41;-0.65;4.45;0.96;1
0;-113.82;38.16;6.36;50.96;26.97;-17.05;-3.79;-202.34;-3.5;11.03;-47.75;20.57;-12.82;101.53;4.08;59.78;2.9;7.75;-144.33;-35.7;63.84;-0.44;0;0.43;1
0;93.93;-43.04;8.25;209.37;71.46;-16.7;-11.04;-245.9;-144.36;8.11;337.9;29.65;-10.59;93.84;-11.11;141.46;3.81;7.92;-311.63;-37.72;198.34;1.28;3.69;0.56;1
0;-112.3;43.76;5.14;50.63;30.79;-12.86;-7.27;-198.37;3.64;18.26;-40.48;26.19;-11.72;102.13;28.55;82.6;4.97;8.97;-233.14;-32.56;136.41;1.1;-1.57;-0.31;1
0;100.06;-39.28;7.29;201.45;68.31;-6.08;-10.18;-181.08;-134.48;7.64;343.47;21.59;-10.14;86.32;-18.77;100.27;4.22;6.44;-246.03;-27.91;128.03;1.36;4.96;0.61;1
0;-103;40.61;5.21;36.99;27.36;-10.8;-7.94;-183.12;-4.82;16.21;-58.18;17.36;-12.28;95.58;22.48;58.52;4.6;6.71;-127.75;-36.72;63.94;-7.02;-1.73;-0.35;1
0;96.9;-22.49;6.11;201.25;63.32;-11.51;-7.43;-212.89;-103.52;8.66;358.63;14.51;-10.73;76.98;-12.15;129.87;3.73;6.43;-279.18;-29.8;178.9;-2.09;4.66;0.47;1
0;-94.32;41.25;4.86;40.23;28.59;-12.54;-8.64;-174.19;4.42;9.39;-35.65;18.9;-11.87;90.17;27.53;59.92;3.51;6.7;-115.37;-33.95;82.73;-2.43;-0.41;-0.54;1
0;88.35;-44.85;7.46;187.32;66.01;-14.3;-8.79;-229.45;-148.85;9.15;323.89;24.9;-11.41;82.69;-24.57;159.5;3.92;8.91;-299.73;-37.44;310.5;0.88;3.82;0.79;1
0;-104.55;47.52;4.71;39.63;23.62;-11.18;-8.05;-179.79;1.59;14.77;-41.11;14.68;-11.47;84.31;29.78;52.15;4.38;6.34;-85.61;-31.85;89.24;-1.09;-1.52;-0.79;1
0;93.28;-41.3;8.39;207.7;75.05;-12.58;-8.63;-224.17;-135.31;8.86;359.08;29.22;-11.26;88.24;-18.09;136.89;4.41;9;-297.63;-37.28;214.8;0.98;4.87;0.51;1
0;-100.57;47.09;4.95;49.13;30.24;-15.57;-9.6;-197.26;-2.81;15.81;-24.13;32.73;-11.58;93.7;23.61;82.29;5.45;10.93;-200.46;-33.07;121.76;-1.93;-1.57;-0.61;1
0;97.95;-39.17;8.91;215.51;79.21;-10.11;-10.68;-192.51;-159.86;8.55;405.87;26.95;-11.05;97.97;-13.22;134.8;4.55;8.45;-292.38;-31.92;200.38;3.16;4.88;0.59;1
0;-110.14;43.22;4.92;42.96;27.46;-11.89;-7.06;-208.39;6.79;15.83;-57;23.58;-11.98;95.72;12.88;77.29;4.63;8.89;-201.61;-34.72;110.11;-4.31;-2.15;-0.97;1
0;109.46;-39.76;8.15;214.66;67.31;-11.42;-14.43;-190.79;-127.99;6.91;386.19;30.46;-11.54;69.14;-17.87;101.86;4.42;8.48;-265.16;-32.61;169.4;1.44;4.89;0.99;1
0;-112.17;44.72;5.26;40.68;33.38;-21.45;-8.79;-183.64;0.4;15.97;-61.14;20.88;-12.46;108.86;30.53;70.03;4.88;9.65;-187.03;-36.76;166;-4.11;-3.17;-0.38;1
0;108.53;-39.34;7.39;212.71;69.67;-10.21;-10.67;-208.78;-138.24;6.41;363.41;25.55;-10.7;88.05;-22.48;130.78;4.12;8.23;-258.01;-31.4;223.99;1.19;5.4;0.58;1
0;-106.02;38.31;5.94;44.73;30.68;-13.85;-7.31;-192.65;-6.63;14.77;-46.97;24.72;-12.08;89.73;26.34;73.73;4.47;8.94;-199.63;-36.97;90.83;-1.48;-1.48;-0.42;1
0;101.76;-38.23;7.45;219.47;71.59;-13;-8.7;-180.58;-142.7;8.81;408.55;20.79;-10.66;79.1;-10.68;141.76;4.15;8.53;-311.31;-20.77;221.42;-0.2;4.08;0.54;1
0;-107.86;47.37;5.68;46.07;33.13;-13.63;-8.11;-204.17;-16.2;15.81;-46.54;19.26;-12.54;115.88;18.95;60.59;4.68;7.59;-105.89;-33.74;74.93;-3.35;-1.65;-0.67;1
0;102.77;-37.71;8.7;227.34;78.2;-12.4;-11.06;-197.55;-154.32;9.57;413.33;28.94;-10.94;87.98;-15.03;134.02;4.73;8.6;-314.28;-32.37;192.52;1.87;4.8;0.54;1
0;-109.2;44.74;4.3;37.96;30.25;-15.28;-8.81;-191.15;1.13;17.73;-47.16;23.36;-12;103.7;18.97;74.39;5.07;9.18;-202.76;-34.17;89.73;-7.33;-2.54;-0.58;1
0;95.97;-42.47;8.11;216.61;78.55;-15.2;-8.32;-217.9;-161.94;6.69;364.23;21.46;-10.94;83.17;-19.33;139.35;3.91;7.43;-252.43;-31.27;260.89;1.02;4.48;0.9;1
0;-111.26;39.18;5.08;49.56;31.87;-15.4;-6.16;-208.57;-9.85;14.84;-33.2;23.3;-12.22;98.34;15.36;79.49;4.52;8.77;-219.34;-33.34;73.12;-2.22;-1.85;-0.68;1
0;102.02;-53.07;8.52;215.24;68.92;-15.32;-10.08;-197.98;-153.24;6.8;366.67;24.44;-11.11;59.44;-11.67;93.56;3.81;7.29;-274.12;-36.65;161.86;1.39;4.69;1.63;1
0;-111.88;47.36;4.92;44.29;31.98;-14.66;-7.17;-202.96;1.81;16.1;-45.29;20.87;-11.89;109.31;15.74;65.48;4.98;8.51;-139.44;-33.87;125.9;-2.08;-2.65;-0.64;1
0;107.18;-36.52;8.76;224.77;70.64;-12.16;-13.04;-183.71;-156.14;9.23;416.02;30.91;-11.19;87.32;-8.86;152.49;4.66;9.51;-311.1;-37.79;240.48;0.25;5.1;0.46;1
0;-113.14;44.6;5.37;46.45;31.97;-15.09;-5.9;-211.15;4.25;13.83;-58.81;20.49;-12.21;101.3;19.01;61.57;4.75;8.62;-174.97;-32.98;102.38;-3.51;-2.43;-0.79;1
0;112.18;-43.54;7.87;208.26;73.67;-9.36;-8.93;-193.46;-157.61;6.61;365.75;20.78;-10.58;69;-14.48;120.61;3.68;6.86;-295.68;-34.01;166.13;-0.99;4.91;1.27;1
0;-114.6;42.66;4.71;40.81;30.67;-15.36;-5.69;-206.78;7.28;12.79;-61.64;20.17;-12.1;102;9.43;57.18;4.06;8.16;-152.07;-34.36;77.42;-6.3;-2.15;-0.63;1
0;109.98;-26.12;8.2;225.44;67.94;-10.94;-5.86;-260.39;-110.47;5.63;384.22;16.5;-11.47;88.87;-1.23;97;3.27;6.58;-196.49;-33.61;147.75;1.13;4.91;1.14;1
0;-105.36;40.21;5.13;50.65;30.7;-11.5;-7.73;-183.01;2.99;10.39;-41.32;21.18;-11.5;95.33;16.04;72.75;3.09;8.18;-222.55;-29.32;95.6;-1.76;-0.71;-0.38;1
0;97.39;-39.3;7.66;218.82;75.62;-12.82;-9.84;-235.06;-155.69;8.21;398.99;20.2;-11.06;79.29;-13.58;150.47;4.03;8.01;-299.05;-32.85;250.1;-0.54;3.93;0.46;1
0;-109.71;46.5;5.84;62.33;30.5;-17.28;-4.76;-239.6;7.16;10.39;-33.78;20.93;-11.6;93.11;17.97;70.14;3.78;8.81;-153.12;-34.91;92.47;1.23;-1.12;-0.37;1
0;105.48;-25.4;8.64;206.32;70.88;-6.93;-14.36;-199.43;-124.85;11.29;338.83;21.51;-11.43;103.97;-12.3;121.37;4.43;7.14;-288.9;-37.37;169.04;1.1;4.84;0.91;1
0;-109.85;37.04;4.56;47.06;31.09;-17.65;-6.22;-195.14;-1.63;14.06;-52.57;19.59;-11.92;91.44;19.45;67.33;3.92;8.65;-139.41;-26.48;95.52;-0.92;-2.06;-1.18;1
0;114.23;-41.04;6.82;223.22;69.55;-21.28;-5.4;-187.63;-139.28;14.08;417.21;24.73;-9.64;68.15;-1.49;179.7;4.18;9.85;-452.52;-22.99;388.68;2.03;3.67;0.73;1
0;-117.34;50.91;6.58;51.4;30.26;-16.88;-9.24;-209.63;-30.08;19.92;-37.73;20.06;-12.98;106.28;13.96;43.51;5.67;8.41;-119.64;-35.65;60.26;2.44;-1.53;-1.08;1
0;115.15;-37.65;7.27;221.2;67.29;-4.7;-12.87;-199.27;-123.15;8.86;414.09;13.27;-10.76;64.49;-10.87;106.98;4.26;6.19;-300.4;-36.41;133.94;-0.81;4.81;1.01;1
0;-110.96;41.01;6.18;52.09;34.23;-18.67;-7.75;-205.48;-7.05;11.11;-35.93;23.25;-12.06;107.33;12.38;66.44;4.35;9.34;-135.99;-29.07;87.35;4.72;-1.42;-0.69;1
0;113.78;-50.97;6.38;209.82;68.54;-5.53;-9.79;-206.51;-148.15;6.81;386.43;16.21;-10.24;48.77;-12.22;116.97;3.72;6.22;-302.17;-32.43;151.29;-1.19;4.56;1.21;1
0;-113.27;40.26;6.52;51.59;31.26;-13.88;-5.51;-196.35;-4.66;11.79;-40.12;18.77;-12.41;99;20.91;53.37;3.7;7.66;-104.21;-36.28;101.86;1.71;-0.88;-0.16;1
0;108.79;-53.06;7.57;212.74;82.61;-9.49;-8.58;-185.07;-177.76;12.33;396.16;23.78;-10.57;71.7;-8.75;128.67;3.91;7.71;-266.56;-26.81;226.97;1.47;5.18;1.77;1
0;-113.1;42.28;6;46.47;29.92;-15.55;-7.74;-212.7;-9.57;18.48;-46.87;26.13;-12.35;93.29;1.12;68.79;5.13;8.71;-212.59;-36.01;61.22;-0.49;-2.33;-0.67;1
0;114.57;-36.26;8.35;234.39;83.07;-16.02;-7.9;-201.2;-149.93;7.82;420.99;24.53;-10.39;101.22;2.78;155.15;3.48;9.22;-260.36;-31.26;260.84;2.81;5.58;0.58;1
0;-109.94;40.63;5.44;41;32.12;-16.48;-7;-192.06;-6.55;16.13;-51.56;18.06;-12.14;108.3;16.91;70.03;4.83;7.87;-163.28;-35.89;103.95;-0.71;-2.35;-0.52;1
0;102.23;-43.02;7.88;209.21;63.79;-15.18;-11.12;-224.17;-173.77;7.52;360.86;22.07;-11.45;53.56;-12.34;183.94;5.05;9.74;-270.77;-37.06;347.68;0.26;4.1;0.01;1
0;-108.71;37.1;5.5;53.66;33.76;-12.74;-5.08;-197.1;-8.49;12.64;-35.94;24.71;-11.63;101.87;12.6;83.21;4.15;8.95;-237.89;-30.67;91.23;1.34;-1.33;-0.41;1
0;114.77;-31.03;7.11;227.81;68.97;-10.15;-7.81;-183.01;-137.86;8.67;426.12;19.5;-10.37;62.58;1.59;116.88;3.98;7.49;-258.46;-21.25;247.95;1.63;3.84;0.26;1
0;-102.4;32.59;6.12;42.22;31.96;-12.5;-7.35;-172.16;-32.88;12.25;-46.13;15.99;-12.5;100.95;11.92;48.53;4.33;7.52;-128.87;-36.21;98.93;-2.46;-0.48;-0.32;1
0;108.49;-29.64;6.19;222.81;76.81;-16.43;-10.31;-173.23;-134.4;6.97;428.27;21.26;-11.3;87.95;-5.7;124;4.85;9.02;-257.75;-24.23;185.26;-0.73;3.96;0.41;1
0;-110.01;45.14;7.18;39.21;28.49;-13.67;-18.46;-175.99;-9.76;11.4;-63.26;19.89;-12.44;104.39;11.72;63.96;5.48;7.08;-163.59;-37.22;124.41;-2.07;-2.52;-1.5;1
0;117.35;-52.87;4.05;188.44;65.96;-9.54;-10.91;-158.51;-147.89;10.61;331.48;18.57;-10.1;47.2;-3.94;129.57;4.13;6.78;-284.48;-17.57;163.45;-0.59;4.71;1.06;1
0;-106.85;50.68;7.07;41.73;34.57;-13.93;-7.96;-192.72;-47.94;18.1;-41.27;16.14;-12.68;119.42;19.1;45.35;5.3;6.74;-82.68;-35.91;86.92;-0.29;-1.83;-0.74;1
0;108.64;-25.05;7.83;185.59;66.9;-12.13;-7.94;-174.08;-108.2;8.31;319.66;19.42;-10.81;80.38;-11.3;177.21;4.58;7.61;-387.58;-36.05;271.98;1.77;4.37;0.44;1
0;-118.3;45.67;6.13;47.67;34.05;-18.24;-9.36;-208.54;-13.44;16.47;-37.6;25.02;-12.4;123.4;24.89;75.42;5.28;8.92;-148.9;-34.06;115.54;0.86;-2.08;-1.01;1
0;105.38;-48.09;8.73;220.28;76.75;-8.51;-7.16;-200.15;-163.34;12.69;399.18;25.39;-11.05;80.13;-17.48;131.52;4.07;8.07;-287.04;-36.38;239.94;0.83;4.7;1.28;1
0;-107.58;45.35;4.11;37.79;30.33;-10.07;-5.87;-179.75;-4.65;15.97;-47.11;25.31;-11.61;107.93;20.7;70.82;3.77;7.74;-169.01;-30.34;74.71;-4.81;-1.59;-0.36;1
0;95.52;-39.96;7.08;209.02;82;-14.25;-7.04;-198.38;-176.86;6.13;414.37;30.62;-10.55;103.52;-14.97;144.13;3.93;9.66;-270.08;-26.71;253.89;-2.42;3.53;0.37;1
0;-104.2;39.6;5.35;40.15;36.52;-14.58;-11.69;-179.13;-13.99;11.85;-42.91;22.79;-12.05;111.58;28.32;82.13;4.32;7.69;-176.11;-34.48;118.03;-0.79;-0.28;-0.05;1
0;107.08;-50.83;5.54;204.83;79.83;-16.8;-10.69;-180.67;-177.52;7.79;403.71;23.78;-10.57;97.03;-17.52;186.74;4.51;10.08;-363.93;-21.51;319.28;-0.77;3.51;0.69;1
0;-114.5;44.63;5.65;48.24;35.92;-17.49;-9.59;-198.31;-32.69;13.81;-37.5;16.44;-13.02;112.01;20.35;75.97;4.41;8.72;-183;-31.94;124.35;-0.56;-1.35;-1.26;1
0;119.77;-46.67;7.93;235.06;74.94;-10.56;-6.23;-195.29;-156.53;8.84;464.73;26.67;-10.76;68.23;-15.21;142.97;3.56;9.12;-286.17;-23.72;247.47;1.93;4.47;1.33;1
0;-111.06;46.83;5.29;42.47;28.62;-14.05;-8.81;-190.36;-3.63;14.71;-35.08;17.99;-12.25;102.36;15.31;34.65;4.37;7.71;-77.12;-34.42;81.09;-4.77;-1.03;-0.64;1
0;101;-37.27;7.4;221.96;74.56;-15.6;-7.93;-249.08;-162.56;6.02;399.38;19.99;-11.49;80.68;-17.66;152.21;3.61;8.17;-302.67;-36.32;240.9;-0.62;4.01;0.63;1
0;-102.19;41.57;6.12;53.94;29.05;-12.83;-7.57;-193.46;-0.14;10.97;-34.98;17.29;-11.26;88.03;23.27;46.28;3.31;6.99;-99.06;-31.36;79.29;0.14;0.2;-0.15;1
0;98.31;-42.95;8.08;210.82;73.33;-16.73;-11.01;-206.69;-152.69;6.28;398.48;23.73;-11.24;83.53;-19.72;144.35;4.2;8.69;-299.11;-36.96;257.92;-2.1;4.39;0.64;1
0;-113.67;40.75;5.38;49.87;37.22;-15.67;-8.15;-210.7;-40.77;13.94;-32.45;24.63;-12.08;107.63;19.42;78.06;4.63;9.08;-189.74;-31.53;105.05;1.19;-2.02;-0.83;1
0;117.23;-61.6;7.44;211.84;66.43;-10.09;-14.77;-205.63;-154.31;10.65;394.99;22.06;-10.68;57.74;-14.61;134.25;4.51;7.91;-344;-33.07;207.36;-0.13;4.64;1.3;1
0;-112.02;56.24;6.1;39.58;37.53;-16.77;-11.78;-204.25;-5.12;19.41;-58;21.96;-12.17;125.76;30.57;72.57;5.92;8.95;-192.4;-36.53;155.74;2.05;-2.91;-0.98;1
0;110.2;-41.31;8.5;225.16;81.45;-14.78;-9.64;-191.15;-181.28;11.06;434.07;16.16;-10.46;87.03;-18.9;177.31;4.95;8.83;-359.6;-29.61;269.96;5.36;4.29;0.18;1
0;-118.8;47.78;6.91;53.21;36.87;-18.95;-9.05;-233.72;-12.4;14.15;-46.5;21.06;-12.62;120.18;19.47;70.91;4.79;9.54;-154.9;-35.97;126.29;2.44;-1.59;-0.92;1
0;121.27;-62.8;7.63;203.82;86.7;-8.45;-8.69;-220;-182.39;8.21;363.43;14.01;-9.37;79.37;-12.04;135.57;3.61;6.61;-315.56;-23.2;227.09;2.68;4.44;1.61;1
0;-112.69;49.18;6.23;40.34;45.89;-18.02;-12.86;-191.11;-76.49;22.87;-52.29;17.68;-13.19;143.48;19.03;68.75;6.98;7.32;-256.96;-35.92;122.42;-0.87;-1.85;-1.31;1
0;122.22;-49.44;7.06;209.19;84.65;-8.62;-6.47;-184.91;-182.12;8.27;390.68;16.07;-9.37;67.67;-16.1;159.48;3.92;7.21;-290.86;-21.15;268.7;3.85;4.95;1.39;1
0;-120.77;38.3;6.39;42.69;42.52;-17;-10.8;-198.23;-58.22;18.57;-67.74;24.05;-13.58;125.66;10.52;82.09;5.9;8.67;-200.25;-36.51;97.52;-1.59;-2.11;-1.14;1
0;139.74;-51.22;5.45;210.36;80.92;-5.71;-8.01;-180.33;-153.67;7.99;424.21;17.06;-9.24;68.24;-2.92;129.85;3.62;6.92;-282.4;-21.06;180.9;-1.41;5;1.72;1
0;-114.59;42.37;6.96;44.53;41.39;-17.39;-9.11;-206.46;-58.46;16.41;-55.07;15.36;-12.99;115.64;10.92;70.15;5.37;7.37;-172.51;-35.3;111.95;7.99;-1.63;-1.01;1
0;124.56;-49.88;7.52;229.55;77.97;-8.84;-10.59;-182.69;-155;7.42;481.77;23.67;-10.35;58.96;-13.73;150.34;4.28;8.64;-283.25;-31.12;201.76;-1.17;5.75;1.3;1
0;-108.08;47.32;4.92;38.5;31.4;-15.54;-8.37;-173.59;-2.57;12.66;-48.43;18.39;-11.94;104.98;22.29;54.06;4.38;6.55;-150.96;-33.59;86.61;-2.79;-1.39;-0.35;1
0;95.7;-52.75;7.09;204.75;77.38;-15.27;-6.25;-250.03;-154.67;8.85;356.05;17.83;-11.1;73.93;-25.22;153.36;3.35;8.08;-336.43;-36.28;278.88;2.13;3.63;1.42;1
0;-118.01;45.56;5.18;51.69;28.41;-13.08;-7.56;-200.48;7.38;12.68;-48.71;25.04;-11.78;97.7;16.89;80.63;3.36;9.4;-152.64;-31.76;96.23;-1.7;-0.78;-0.65;1
0;115.24;-63.64;6.02;197.81;80.84;-6.57;-12.04;-184.05;-168.57;6.14;375.69;17.35;-9.89;58.08;-12.54;127.76;3.52;6.45;-365.62;-23.42;207.94;-1.6;4.28;1.54;1
0;-115.06;44.35;5.31;38.48;36.06;-15.84;-6.61;-191.47;-68.24;20.64;-50.66;15.96;-12.76;112.57;14.99;37.13;5.62;6.77;-119.56;-34.74;60.35;-6.75;-1.13;-0.04;1
0;117.16;-24.86;8.5;257.05;74.23;-18.54;-11.02;-199.12;-130.56;10.64;500.93;23.83;-11.77;91.45;-14.31;127.41;4.82;10.03;-304.03;-37.2;160.31;1.26;4.35;0.22;1
0;-107.33;35.18;6.06;51.61;32.69;-16.76;-6.63;-227.66;-7.57;13.63;-43.74;15.8;-11.64;88.45;10.72;66.5;3.94;7.71;-185.74;-30.99;97.98;6.9;-0.65;-0.39;1
0;112.95;-56.54;6.26;206.05;64.75;-9.96;-11.27;-206.93;-140.85;7.04;385.95;22.13;-10.7;56.18;-4.87;147.55;4.02;8.23;-317.75;-36.85;228.27;-1.53;5.1;1.2;1
0;-105.62;46.28;6.22;52.1;39.92;-18.54;-7.57;-197.38;-0.71;12.59;-44.24;21.25;-11.98;126.59;24.81;87.05;4.23;8.53;-180.64;-36.76;170.85;3.91;-1.3;-0.56;1
0;115.27;-51.5;7.09;208.65;85.84;-8.6;-9.06;-183.3;-200.09;5.87;393.52;15.78;-10.46;51.42;-28.65;146.44;4.26;6.97;-299.93;-30.72;267.02;1.26;4.56;1.32;1
0;-114.99;46.73;5.18;43.8;32.09;-23.91;-8.48;-200.76;4.63;16.59;-58.16;15.45;-12.84;111.05;13.8;67.88;5.25;8.52;-193.39;-34.65;110.2;-3.45;-2.41;-0.95;1
0;111.2;-54.59;7.16;216.94;79.25;-6.07;-11.95;-217.57;-159.65;9.22;407.28;20.44;-10.51;55.31;-7.37;144.13;4.05;7.41;-332.86;-36.35;181.83;-2;4.8;1.47;1
0;-106.85;51.12;6.35;61.19;39.73;-17.56;-7.43;-211.26;-7.57;12.38;-35.76;26.77;-12.04;115.75;24.07;76.45;4.37;9.66;-186.07;-27.59;115.74;4.64;-1.1;-0.66;1
0;125.24;-47.34;7.33;221.73;79.55;-7.15;-7.08;-193.85;-174.88;8.75;429.82;23.41;-9.65;73.13;-7.53;144.62;3.74;8.01;-257.58;-21.7;250.55;1.94;4.45;1.04;1
0;-119.23;40.67;7.06;49.88;37.2;-17.82;-8.33;-204.35;-27.71;15.23;-58.98;27.24;-13.36;117.96;16.01;93.04;5.08;9.03;-234.82;-35.76;104.02;2.21;-0.54;-0.57;1
0;112.18;-51;6.46;207.85;78.41;-16.46;-6.83;-208.88;-145.92;13.02;375.75;20.38;-10.06;78.85;-7.36;145.68;4.36;9.02;-364.09;-22.08;295.83;-0.42;2.8;0.92;1
0;-119.46;42.57;6.25;46.93;39.92;-20;-10.8;-221.5;-60.03;18.41;-54.32;19.78;-13.36;123.77;4.76;87.9;5.68;8.89;-274.82;-35.42;78.96;-2.95;-1.88;-0.8;1
0;109.6;-48.51;7.8;219.42;74.5;-20.82;-5.04;-224.78;-150.71;11.9;392.64;17.34;-11;92.34;-17.14;106.46;3.11;7.79;-260.25;-35.99;131.51;0.43;3.65;1.27;1
0;-112.41;43.07;6.01;40.31;29.19;-9.91;-9.27;-193.11;-3.3;20.69;-46.13;17.81;-11.72;94.63;15.49;39.38;5.32;5.98;-104.15;-33.87;72.03;-1.22;-1.32;-0.16;1
0;93.58;-53.32;7.46;210.37;68.87;-8.59;-10.78;-190.31;-151.77;10.96;402.52;23.69;-10.88;73.17;-6.54;148.8;4.55;8.49;-329.19;-36.86;222.69;0.71;4.58;1.04;1
0;-115.74;55.43;5.16;40.85;27.55;-17.18;-9.12;-211.26;13.08;16.97;-52.93;15.04;-12.19;112.5;12.18;58.73;5.1;6.62;-89.49;-33.3;91.41;-2.01;-2.28;-0.88;1
0;102.61;-64.67;6.09;199.53;73.73;-18.03;-6.53;-201.16;-172.81;5.58;360.68;20.87;-10.56;66.87;-19.56;149.96;3.36;8.22;-317.66;-28.45;233.16;-1.78;3.96;1.31;1
0;-108.01;50.64;6.15;44.01;32.74;-16.4;-7.11;-184.52;6.4;14.92;-44.01;20.41;-12.38;106.2;24.24;55.42;4.47;7.81;-137.82;-35.24;82.07;0.26;-1.27;-0.24;1
0;100.57;-36.41;8.44;202.73;67.43;-15.02;-7.98;-211.94;-145.45;11.41;376.28;20.23;-11.36;76.12;-24.54;148.7;4.29;7.78;-261.59;-36.54;281.29;0.26;4.44;0.92;1
0;-110.8;38.01;5.53;47.69;36.68;-21.98;-8.04;-194.17;-9.33;10.33;-44.94;21;-11.81;113.33;23.82;75.9;3.48;8.41;-168.5;-25.79;136.71;1.47;-0.87;-0.52;1
0;98.03;-40.93;7.47;210.96;72.73;-21.85;-12.71;-195.2;-149.45;9.18;375.63;19.07;-11.38;89.87;-12.9;122.95;4.53;8.38;-263.2;-36.73;147.42;0.92;3.56;1.22;1
0;-108.33;46.6;4.84;39.62;33.12;-15.4;-6.32;-183.07;6.09;14.15;-62.08;22.76;-11.76;116.31;25.08;79.48;3.81;7.96;-217.63;-28.65;126.27;-0.71;-1.37;-0.29;1
0;105.75;-45.11;6.18;202.27;86.74;-16.72;-6.64;-180.55;-165.3;10;384.71;18.97;-10.43;104.51;-5.67;187.44;4.58;9.91;-297.87;-19.86;352.01;1.35;3.25;0.62;1
0;-120.62;49.06;6.29;41.7;39.34;-17.66;-9.26;-213.41;-29.19;14.68;-70.5;11.27;-13.69;118.23;5.05;75.93;4.76;7.73;-240.79;-33.76;126.58;-5.59;-2.24;-1.15;1
0;128.67;-61.01;6.25;214.14;77.44;-10.28;-4.67;-188.2;-161.72;10.57;414.31;20.81;-9.34;72.91;-6.45;153.84;3.56;8.13;-350.06;-22.91;258.33;0.57;4.39;1.41;1
0;-114.2;52.91;7.48;46.63;37.3;-17.44;-8.72;-193.7;-30.45;14.91;-36.59;16.77;-13.31;123.77;11.02;70.23;4.8;7.51;-190.37;-35.1;108.01;2.8;-2.14;-0.91;1
0;137.9;-49.81;6.09;212.14;69.45;-7.79;-10.81;-173.74;-145.79;6.8;433.13;24.56;-10.62;64.62;-12.36;151.82;4.22;8.57;-287.33;-34.95;236.21;-2.63;5.2;0.98;1
0;-112.3;52.12;6.64;39.19;34.99;-15.77;-6.97;-186.89;-4.04;11.36;-53.21;21.18;-12.43;118.9;12.83;61.1;4.4;7.76;-172.01;-34.06;101.92;3.36;-2.24;-0.86;1
0;113.26;-48.71;7.68;212.24;73.53;-13.16;-6.86;-182.7;-155.63;9.95;429.94;26.23;-10.27;61.53;-9.55;169.1;4.02;9.11;-300.79;-37.27;286.08;0.39;4.87;1.08;1
0;-107.62;46.49;6.18;44.05;34.08;-15.65;-11.29;-189.75;-9.19;13.56;-40.72;15.24;-11.86;111.16;15.57;48.38;5.01;6.83;-84.61;-31.99;102.6;0.74;-1.6;-0.97;1
0;111.18;-40.22;6.33;227.15;72.78;-15.48;-7.23;-234.04;-152.59;5.97;434.73;23.28;-11.32;91.34;-17.47;131.33;4.05;8.96;-234.94;-29.05;192.54;-1.31;4.08;0.89;1
0;-113.36;46.83;7.29;46.42;32.79;-19.77;-5.29;-197.03;7.16;9.79;-52.18;18.82;-12.21;97.89;19.5;58.03;3.59;8.23;-177.31;-36.01;100.84;0.3;-1.22;-0.1;1
