label;gyro_z_avg;gyro_x_avg;acc_y_stdev;gyro_z_stdev;gyro_x_stdev;acc_x_min;acc_z_min;gyro_z_min;gyro_x_min;acc_z_max;gyro_z_max;acc_x_max;acc_y_avg;gyro_x_max;gyro_y_avg;gyro_y_stdev;acc_z_stdev;acc_x_stdev;gyro_y_min;acc_y_min;gyro_y_max;acc_y_max;acc_x_avg;acc_z_avg;stride_check
0;125.32;-73.91;3.39;183.97;66.05;-0.53;-8.56;-141.63;-151.01;4.35;326.37;13.12;-12.52;22.05;-21.55;102.01;2.98;3.53;-230.34;-17.65;109.48;-7.2;3.89;1.81;0
0;-89.01;18.08;6.49;32.5;10.95;-6.96;-7.65;-139.93;-21.27;13.4;-49.32;15.26;-13.37;29.17;-4.61;55.99;5.76;5.93;-101.66;-30.12;53.32;-9.12;2.2;0.19;1
0;13.43;-9.31;3.82;160.07;75.79;-9.43;-9.5;-162.01;-147.15;6.01;308.76;12.52;-10.35;95.28;2.24;85.08;3.05;5.1;-242.58;-18.44;157.54;-1.32;0.49;0.09;0
0;-50.12;17.5;5.01;110.88;51.05;-10.94;-6.72;-164.21;-112.54;13.22;317.26;11.36;-10.93;98.54;6.67;56.48;3.75;5.25;-123.1;-30.54;122.91;-0.24;-0.07;-0.16;1
0;176.18;-80.82;4.74;218.44;68.68;0.57;-3.47;-192.8;-152.92;4.57;377.43;10.19;-12.72;33.77;-8.13;81.7;2.09;2.61;-184.15;-23.96;115.58;-6.16;4.67;2.01;0
0;-92.74;14.08;5.53;43.18;12.96;-5.13;-17.33;-160.27;-2.63;9.54;-43.33;17.67;-11.69;44.36;-28.76;81.62;6.57;6.28;-177.09;-25.6;93.11;-3.46;3.74;-0.56;1
0;27.01;-3.51;4.49;181.06;78.44;-11.07;-8.21;-183.23;-150.12;7.48;352.16;14.16;-10.64;110.1;15.56;79.47;3.32;6.15;-189.3;-20.43;177.13;0.35;0.19;0.28;0
0;-81.41;27.22;4.23;54.65;37.86;-11.87;-7.59;-163.29;-70.45;9.98;98.15;17.03;-11.31;110.81;5.08;71.82;3.42;5.57;-216.23;-28.85;99.5;-1.2;-0.34;-1.02;1
0;193.58;-82.14;4.29;175.57;56.7;-2.93;0.74;-163.32;-150.78;5.2;364.76;9.79;-10.49;33.22;-8.23;76.53;1.3;3.5;-213.14;-20.3;106.86;-4.28;3.47;2.62;0
0;-103.42;36.58;3.96;46.95;36.64;-12.59;-8.8;-190.76;-29.02;4.97;-41.22;11.91;-12.28;111.19;12.38;65.32;2.63;6.14;-234.67;-28.49;82.51;-6.39;-1.73;-1.17;1
0;102.78;-43.31;5.83;194.93;70.77;-6.17;-9.64;-185.1;-139.26;7.56;361.49;12.69;-9.68;74.54;-7.58;85.61;3.78;4.98;-184.66;-18.08;147.06;1.09;3.24;1.05;0
0;-98.07;35.51;3.42;42.28;35.26;-10.92;-10.25;-178.44;-29.7;9.58;-34.87;19.43;-12.14;107.78;18.06;61.39;3.56;6.75;-164.63;-25.85;83.25;-6.89;-1.6;-1.2;1
0;100.32;-43.08;6.26;204.41;70.75;-7.38;-6.26;-190.6;-135.15;6.76;394.1;12.36;-9.54;72.26;-23.08;76.63;3.39;4.73;-220.19;-22.61;103.06;0.86;3.33;1.02;0
0;-103.03;37.33;3.76;48.74;35.15;-11.87;-4.76;-189.56;-5.18;8.57;-44.03;14.35;-12.26;108.16;23.18;44.55;2.69;6.61;-97.78;-27.03;82.97;-5.1;-1.16;-0.6;1
0;103.82;-45.36;6.33;196.48;72.5;-7.28;-7.48;-186.3;-143.81;7.34;371.86;11.4;-9.85;69.47;-13.46;77.08;3.59;4.78;-154.21;-20.07;126.02;1.69;3.57;1.24;0
0;-102.08;39.14;3.66;39.62;33.38;-11.38;-7.87;-171.17;-7.39;8.99;-45.11;18.17;-12.07;108.68;23.13;63.62;3.27;6.65;-159.14;-25.5;88.18;-3.93;-1.41;-0.66;1
0;97.21;-47.83;6.19;213.87;81.2;-11.21;-8.86;-210.27;-169.53;6.97;406.52;10.79;-10.36;85.91;-20.24;90.15;3.85;5.2;-204.78;-21.81;128.91;0.71;3.28;0.65;0
0;-109.3;41.26;4.61;47.69;34.31;-25.63;-5.18;-198.9;-7.2;13.29;-50.45;17.21;-12.62;104.54;26;66.2;4.43;8.63;-128.37;-29.75;101.41;-4.53;-2.13;0.08;1
0;69.65;-40.12;7.51;195.98;78.48;-11.14;-8.75;-181.44;-167.74;11.74;358.87;10.54;-11.32;77.82;-22.13;82.72;4.42;4.59;-257.43;-35.17;128.67;-0.75;3.14;1.59;0
0;-99.05;40.53;2.8;44.28;37.35;-12.78;-9.45;-180.29;3.79;5.48;-47.34;22.41;-11.22;108.17;29.34;57.53;3.1;8.27;-114.82;-16.12;103.99;-3.73;-1.83;-1.61;1
0;100.43;-50.58;6.01;196.66;73.57;-8.5;-8.54;-206.89;-154.12;7;351.4;10.75;-10.53;60.26;-13.21;103.7;3.76;4.25;-258.03;-21.62;159.57;-0.63;3.52;1.35;0
0;-106.19;45.22;3.96;47.69;32.77;-14.08;-8.27;-187.11;8.02;9.48;-48.96;10.15;-12.05;111.59;24.41;61.61;3.54;6.74;-82.62;-27.3;87.53;-3.06;-1.23;-0.94;1
0;100.2;-49.47;6.83;206.23;72.69;-12.66;-8.63;-200.28;-156.32;6.82;378.33;13.18;-10.63;77.43;-20.04;93.59;4;4.87;-242.46;-26.83;121.83;-2.59;4.05;1.36;0
0;-105.82;50.1;4.91;54.47;34.36;-15.58;-8.91;-209.05;1.92;10.26;-28.7;18.48;-12.06;107.67;24.96;64.28;4.04;7.78;-89.51;-33.13;91.09;-2.45;-1.99;-1.2;1
0;102.27;-44.74;9.08;219.95;79.15;-14.5;-8.17;-182.27;-157.41;13.2;421.38;25.91;-11.01;76.69;-17.48;124.3;4.62;7.02;-285.23;-36.11;148.29;1.07;5.28;1.52;0
0;-104.05;52.58;3.37;39.67;30.02;-12.5;-8.1;-199.14;16.85;16.9;-46.13;20.86;-11.3;106.32;19.64;73.62;4.28;7.87;-161.04;-28;140.24;-6.22;-2.82;-1.14;1
0;96.55;-50.78;6.84;197.9;74.49;-12.41;-8.21;-187.44;-159.29;6.07;346.12;14.14;-10.78;76.18;-22.2;115.76;3.87;6.04;-234.77;-29.31;107.9;1.76;4.02;0.96;0
0;-110.68;47.97;5.02;42.78;31.71;-12.64;-8.74;-190.73;6.98;15.03;-50.41;19.19;-12.01;117.23;19.67;65.82;4.79;7.08;-142.47;-34.06;92.95;-3.87;-2.29;-0.87;1
0;105.63;-44.71;5.65;209.32;72.79;-11.66;-7.53;-175.89;-137.63;5.67;391.36;13.66;-10.59;80.32;-18.51;93.85;3.87;5.22;-203.2;-21.61;135.37;-0.42;4.19;1.18;0
0;-111.08;36.88;5.39;43.98;31.71;-12.85;-8.54;-188.38;-9.3;13.08;-57.81;14.74;-12.52;100.12;21.2;58.03;4.33;6.3;-90.67;-33.84;99.07;-4.99;-1.31;-0.2;1
0;107.75;-56.5;6.56;207.64;84.17;-10.86;-8.88;-173.19;-170.93;6.85;385.48;10.86;-10.2;74.31;0.29;89.28;4.24;5.09;-232.73;-22.55;153.72;-0.26;3.03;1.48;0
0;-106.45;42.91;5.96;47.15;41.13;-15.67;-8.93;-194.55;-39.6;12.8;-40.99;22.37;-12.83;121.78;16.3;93.03;4.36;7.92;-290.71;-36.93;121.14;-4.82;-1.46;-1.41;1
0;118.3;-49.79;7.21;215.35;78.69;-11.2;-8.32;-185.03;-153.47;5.03;427.12;12.71;-10.14;66.9;-24.38;87.72;3.85;5.04;-230.1;-26.2;126.34;0.21;3.75;1.14;0
0;-110.73;48.7;5.52;47.9;39.95;-14.67;-9.43;-194.92;-26.21;13.19;-42.2;23.84;-13.09;128.12;20.79;58.58;4.47;7.97;-186.96;-35.35;92.14;-5.51;-1.71;-0.98;1
0;105.18;-69.24;6.86;207.69;86.56;-7.57;-8.45;-182.73;-169.83;5.93;390.03;13.54;-10.04;61.83;-29.74;104.89;3.94;5.02;-258.41;-21.57;166.42;0.93;3.41;1.24;0
0;-115.42;44.92;5.81;49.38;35.7;-13.74;-5.61;-205.82;-24.83;13.6;-46.45;21.46;-12.77;114.78;19.48;58.27;4.23;7.78;-120.18;-35.24;68.86;-3.9;-1.86;-0.54;1
0;105.25;-59.79;5.47;196.58;82.69;-8.75;-6.9;-196.69;-152.11;7.41;340.48;11.29;-10.54;68.45;-7.59;106.54;4.1;5.38;-300.63;-19.18;166.46;0.45;3.03;1.36;0
0;-111.71;43.25;6.09;51.23;41.52;-15.24;-9.53;-206.22;-36.23;12.06;-42.72;24.17;-13.05;125.6;15.66;74.46;4.67;8.48;-253.03;-35.84;122.48;-2.04;-1.78;-0.85;1
0;114.51;-54.03;7.08;202.45;84.26;-9.43;-8;-179.09;-163.54;6.36;398.14;17.26;-10.05;75.98;-25.27;108.97;4.06;6.77;-230.37;-23.52;177.13;1.33;4.55;1.35;0
0;-113.37;39.13;5.2;40.73;41.85;-13.76;-12.14;-187.78;-31.96;16.24;-49.32;21.94;-12.99;121.03;25.87;61.46;5.27;7.92;-158.44;-34.3;97.09;-7.57;-2.74;-0.96;1
0;105.35;-57.13;7.03;204.07;87.13;-10.45;-8.67;-199.54;-180.93;6.85;369.76;12.14;-9.84;66.95;-7.43;122.01;3.98;5.58;-278.81;-20.41;203.05;3.11;3.51;0.99;0
0;-111.76;47.31;4.68;50.51;40.06;-14.91;-8.58;-205.06;-26.83;12.71;-44.11;15.93;-12.84;125.18;19.84;78.75;4.46;8.35;-253.51;-31.73;122.58;-5.97;-2.23;-1.15;1
0;115.14;-62.94;7.9;220.7;95.33;-9.83;-7.54;-195.27;-183.37;6.02;405.79;13.21;-9.99;73.23;-19.87;112.4;3.93;5.89;-210.73;-26.07;163.62;2.41;3.64;1.25;0
0;-110.66;37.41;6.09;48.64;34.98;-12.1;-4.91;-215.98;-12.31;11.79;-52.86;16.06;-12.84;110.74;19.56;61.16;3.49;6.65;-215.72;-35.67;89.45;-1.26;0.15;-0.26;1
0;101.67;-51.51;5.25;195.69;79.33;-12.02;-8.05;-174.86;-168.22;5.28;374.86;13.87;-10.09;81.2;-10.68;113.42;4.05;6.31;-263.38;-20.15;228.8;-2.19;2.8;0.89;0
0;-112.49;41.12;5.94;47.75;42.79;-16.9;-8.42;-203.13;-35.68;14.71;-47.35;27.53;-13.01;125.39;12.06;92.74;4.78;9.5;-211.38;-35.2;126.92;-2.32;-1.87;-0.94;1
0;107.91;-57.23;7.35;211.92;85.79;-12.88;-8.26;-198.36;-177.1;6.58;385.47;11.4;-10.14;72.73;-13.05;108.88;4.21;5.61;-248.19;-23.94;192.41;0.9;3.47;1.27;0
0;-111.39;46.86;4.93;44.24;33.03;-14.23;-6.76;-188.24;-18.31;12.84;-54.49;16.64;-12.59;115.82;18.44;46.8;3.85;7.44;-134.27;-32.22;100.46;-6.05;-1.31;-0.31;1
0;105.12;-60.86;5.96;200.17;91.37;-11.74;-6.9;-178.71;-172.44;7.75;380.06;10.82;-10.04;76.45;-20.25;102.07;3.97;5.6;-262.44;-21.01;125.02;-0.24;3.42;1.43;0
0;-111.87;37.56;6.15;47.84;37.67;-15.77;-11.52;-218.31;-38.77;15.81;-46.19;20.86;-12.92;117.45;13.86;85.65;5.15;8.45;-216.67;-36.44;144.57;-2.9;-1.82;-0.83;1
0;112.47;-47.22;5.55;203.69;68.5;-13.58;-6.81;-198.45;-131.55;7.23;380.68;14.28;-10.68;73.87;-10.34;111.29;4.17;6.81;-241.5;-21.42;193.79;-1.25;4.17;1.07;0
0;-106.4;49.09;5.83;46.24;37.6;-17.59;-10.1;-196.74;-21.45;14.59;-48.78;22.41;-12.65;118.96;26.08;62.78;5.21;8.82;-104.49;-33.92;132.56;-2.08;-2.21;-1.13;1
0;112.27;-45.94;8.32;238.58;87.16;-14.67;-8.47;-215.35;-189.69;6.04;474.8;15.82;-9.7;88.44;-15.63;128.93;4.23;6.81;-202.72;-30.02;203.49;0.38;3.77;0.65;0
0;-108.19;49.24;6.05;53.44;38.11;-16.22;-8.85;-210.3;-30.18;12.72;-33.54;18.85;-13.13;126.96;14;63.22;4.18;8.74;-121.79;-35.78;107.63;-4.35;-2.13;-0.89;1
0;118.05;-50.65;7.73;225.2;87.64;-9.63;-7.81;-194.91;-177.71;5.64;439.63;12.92;-9.54;70.68;0.22;113.69;3.95;5.65;-260.7;-27.35;159.22;1.82;3.72;1.08;0
0;-116.9;44.04;6.2;52.6;40.03;-21.4;-8.18;-206.35;-34.38;12.35;-47.04;23.05;-13.45;126.5;-1.28;84.38;4.27;9.06;-246.35;-34.41;81.44;-3.42;-2.53;-1.11;1
0;134.59;-54.36;8.13;227.44;95.51;-2.38;-8.65;-225;-179.88;5.59;434.61;13.77;-9.41;81.19;-1.74;115.02;3.26;4.81;-244.72;-28.41;184.6;1.02;4.92;1.86;0
0;-110.7;39.47;6.09;51.8;45.59;-16.84;-10.87;-206.44;-71.72;10.49;-39.63;21.99;-13.25;121.21;20.12;83.14;4.62;8.78;-208.12;-35.55;118.17;-5.78;-2.71;-1.45;1
0;125.61;-49.9;7.95;219.67;84.58;-8.51;-8.51;-203.46;-180.01;6.77;431.58;14.15;-9.77;58.9;-14.88;125.59;4.17;5.85;-207.69;-27.71;198.19;1.89;5.09;1.08;0
0;-110.7;42.43;5.73;44.83;37.93;-15.88;-8.3;-192.31;-39.34;16.39;-50.7;16.62;-12.99;118.16;17.12;53.13;5.33;7.63;-157.31;-35.28;114.65;-6.28;-2.36;-0.57;1
0;114.82;-59.26;7.22;217.33;89.31;-13.82;-9.33;-201.05;-209.39;9.64;418.87;14.8;-10.09;68.58;-6.78;160.51;4.84;7.37;-256.6;-26.56;262.11;0.07;3.78;0.79;0
0;-117.77;47.51;5.51;52.54;42.27;-22.35;-9.91;-219.97;-26.28;15.62;-43.12;25.66;-13.42;135.47;15.34;81.03;5.29;10.19;-188.89;-34.12;119.7;-3.91;-2.52;-0.73;1
0;118.28;-59.33;7.31;220.83;93.44;-10.45;-9.76;-207.18;-181.56;8.3;408.66;15.38;-10.36;77.23;-18.42;87.24;4.31;5.47;-168.19;-25.48;114.48;1.19;4.35;1.27;0
0;-111.67;40.65;6.43;49.96;34.94;-15.05;-9.37;-223.7;-22.88;13.29;-54.36;21.38;-12.67;112.76;15.39;60.55;4.41;8.28;-150.12;-36.31;96.55;1.3;-1.35;-0.09;1
0;121.18;-37.75;9.18;239.76;88.82;-8.97;-9.47;-205.54;-192.76;5.64;466.37;17.21;-10.58;68.23;-13.37;109.02;4.55;6.74;-166.99;-31.42;176.35;2.73;4.09;0.28;0
0;-113.15;42.59;5.56;44.94;36.27;-14.9;-5.83;-192.9;-20.91;12.27;-51.31;18.78;-12.83;118.09;16.65;61.69;4.1;7.28;-170.17;-33.18;133.51;-4.46;-2.39;-0.36;1
0;114.09;-59.63;7.56;221.91;87.31;-7.4;-8;-192.48;-195.59;6.41;413.97;12.57;-10.07;54.39;-7.3;94.01;3.76;5.01;-227.29;-23.78;125.65;1.59;3.39;1.03;0
0;-112.9;48.26;5.63;48.19;40.01;-15.58;-8.16;-204.43;-39.9;15.19;-46.41;16.04;-13;120.48;15.89;56.2;4.84;7.55;-207.36;-34.3;84.1;-4.88;-2.07;-0.9;1
0;117.82;-44.94;6.01;215.53;79.58;-13.01;-8.43;-198.75;-168.69;7.21;407.45;11.62;-10.77;79.41;-19.78;94.5;4.43;5.66;-191.21;-23.64;140.17;-3.75;4.02;0.98;0
0;-116.52;42.69;5.72;51.3;37.02;-14.03;-6.76;-216.94;-19.39;11.08;-59.53;15.04;-12.86;113.49;20.06;48.08;3.88;7.59;-93.26;-33.95;97.41;-1.01;-1.43;-0.26;1
0;117.62;-60.63;7.74;222.1;90.14;-12.26;-6.64;-202.95;-181.75;6.53;435.69;18.91;-10.93;78.23;-11.35;100.62;4.42;7.27;-198.46;-29.68;180.64;-0.55;3.84;1.44;0
0;-120.97;43.58;5.14;50.7;39.09;-17.21;-8.96;-212.39;-8.42;12.05;-62.6;19.42;-13.18;123.46;9.97;68.18;4.41;9.69;-157.82;-29.8;91.05;-4.01;-2.57;-0.69;1
0;123.93;-65.77;7.18;219.31;93.92;-11.77;-7.79;-208.29;-175.94;6.58;403.99;9.04;-10.15;76.02;-3.78;91.61;4.06;4.92;-213.33;-26.59;146.82;-1.99;3.73;1.72;0
0;-115.96;42.29;5.98;61.05;40.07;-15.93;-7.97;-219.39;-21.03;14.8;-38.74;23.42;-12.55;124.54;15.58;77.29;4.52;9.53;-187.33;-33.76;102.11;-0.74;-0.76;-0.57;1
0;105.67;-41.92;6.99;224.28;88.87;-18.57;-7.86;-213.47;-153.6;5.5;419.64;14.58;-10.4;117.01;-14.39;82.3;4.15;6.85;-227.78;-24.88;113.69;-1.28;2.85;0.79;0
0;-112.76;44.33;5.74;60.46;43.13;-16.9;-9.85;-236.91;-31.7;11.82;-37.31;16.46;-13.12;126.86;12.02;86.93;4.52;9.42;-181.84;-33.19;130.15;-0.02;-1.61;-1.12;1
0;119.44;-55.22;7.68;222.39;80.89;-7.96;-7.78;-209.89;-157.26;7.11;453.66;13.81;-9.95;51.8;-20.22;132.63;4;6.77;-275.97;-28.86;194.05;-0.37;4.59;1.45;0
0;-109.78;44.95;5.45;46.32;38.76;-14.46;-6.46;-193.25;-2.16;11.48;-47.53;20.95;-12.42;118.93;21.82;68.25;3.86;8.62;-185.7;-32.19;104.99;-0.04;-1.5;-0.46;1
0;103.15;-56.93;6.4;204.41;83.1;-14.04;-6.96;-198.35;-172.11;7.68;400.34;11.76;-10.26;98.02;-14.37;114.27;4.01;6.54;-227.05;-24.32;165.37;-0.63;3.36;0.86;0
0;-118.48;51.59;5.23;54.78;39.19;-18.5;-8.58;-225.61;-24.78;13.49;-36.15;20.29;-13.06;132.04;21.15;74.16;4.83;8.85;-181.88;-30.67;123.41;-4.46;-2.78;-1.41;1
0;127.15;-46.21;9.87;247.45;94.32;-10.23;-8.37;-225.83;-180.11;6.05;486.58;11.91;-9.47;84.76;-3.17;102.7;4.18;5.96;-181.17;-31.76;158.83;2.53;4.6;1.24;0
0;-113.69;43.55;5.67;51.8;45.25;-21.97;-8.86;-228.05;-61.72;11.19;-40.67;23.31;-13.07;126.34;9.15;85.71;4.31;10.42;-176.91;-34.91;123.73;-6.63;-2.31;-1.31;1
0;109.81;-49.46;8.67;221.93;89.98;-10.61;-7.95;-240.51;-197.39;6.41;392.47;16.22;-10.33;76.98;-22.2;119.77;3.88;5.92;-215.62;-27.59;204.62;0.83;4.33;1.15;0
0;-113.2;42.24;4.56;54.8;41.41;-18.17;-8.72;-207.66;-8.07;9.49;-35.55;23.72;-12.51;119.16;26.04;65.07;3.79;10.13;-136.66;-29.19;119.03;-3.15;-2.08;-1.3;1
0;121.75;-54.75;8.63;226.25;85.12;-11.23;-8.08;-208.07;-178.87;6.64;447.81;12.2;-9.34;61.21;-6.73;115.61;4.36;5.92;-208.59;-29.5;171.27;1.57;4.52;1.26;0
0;-111.97;42.02;5.46;52.81;37.52;-15.88;-7.2;-208.5;-29.97;11.75;-37.03;19.86;-12.88;115.85;14.19;69.64;3.91;9.26;-148.89;-32.29;105.7;-3.24;-1.95;-0.78;1
0;116.82;-51.07;7.52;222.23;85.12;-11.89;-7.96;-198.56;-170.24;5.3;433.36;14.54;-9.92;76.01;-9.98;93.79;3.8;6.09;-193.37;-28.64;148.71;-0.5;4.47;1.15;0
0;-112.36;39.66;6.58;52.87;37.51;-18.59;-9.12;-219.16;-33.63;17.6;-39.63;17.28;-13.53;114.53;13.32;52.07;5.86;8.37;-104.9;-35.31;95.26;-1.96;-1.43;0.42;1
0;113.76;-58.07;7.01;215.66;81.18;-10.86;-8.36;-208.97;-173.1;6.15;417.12;16.43;-10.37;64.31;-11.35;102.51;3.93;6.61;-156.36;-27.54;191.63;-1.83;4.21;1.2;0
0;-118.45;41.03;5.64;55.48;39.35;-19.54;-8.68;-235.89;-12.1;10.48;-53.35;20.79;-13.26;115.06;21;80.43;4.02;10.67;-166.6;-31.42;121.07;-1.18;-2.32;-1.07;1
0;115.13;-61.85;7.72;225.31;96.78;-12.4;-11.23;-224.05;-175.42;9.37;424.22;16.03;-10.18;77.93;-14.58;113.23;4.73;6.42;-201.53;-22.99;170.68;1.66;4.29;1.28;0
0;-112.23;50.2;5.6;54.12;43.62;-24.93;-8.31;-200.8;-10.77;14.23;-50.38;21.21;-12.74;136.6;20.98;82.05;4.74;9.89;-220.76;-32.56;108;-0.98;-2.66;-0.01;1
0;110.99;-50.28;8.41;216.57;97.95;-13.87;-10.2;-201.07;-179.99;5.22;416.64;15;-9.88;104.31;-1.8;114.08;4.34;7.02;-214.3;-28.9;177.72;1.78;3.57;0.57;0
0;-112.48;50.38;5.61;55.59;39.16;-16.79;-6.93;-215.97;-38.98;11.92;-38.21;27.73;-13.39;121.39;5.01;69.23;4.7;9.71;-183.66;-35.62;71.14;-6.08;-1.48;-0.41;1
0;124.06;-53.66;8.48;230.25;100.15;-4.51;-8.26;-225.82;-182.42;6.18;436.91;13.83;-9.72;79.25;-5.23;91.2;3.57;5.26;-208.99;-27.3;122.51;2.66;4.48;1.21;0
0;-110.55;40.72;6.01;51;39.69;-14.47;-11.66;-220.76;-52.99;13.64;-39.41;23.1;-12.87;113.67;8.23;70.12;4.36;7.99;-188.2;-37.01;84.81;-3.57;-2.2;-0.61;1
0;123.62;-39.11;8.94;235.65;80.75;-11.67;-8.92;-191.92;-164.73;5.51;466.68;20.26;-10.59;75.38;-5.81;71.31;3.8;6.64;-137.16;-30.71;118.86;1.88;4.55;0.89;0
0;-119.64;38.61;5.12;50.87;34.15;-20.49;-5.43;-216.32;-19.55;10.34;-49.38;17.76;-12.59;103.01;5.07;48.88;3.49;8.66;-144.97;-31.4;60.71;-3.9;-2.31;-0.45;1
0;124.52;-39.87;8.76;231.07;78.77;-15.72;-6.47;-203.97;-161.94;5.66;448.54;17.44;-10.43;65.05;5.88;68.27;3.49;6;-100.5;-29.63;111.58;0.99;4.55;1.08;0
0;-119.55;43.6;5.94;58.62;35.98;-20.35;-5.84;-229.08;-6.22;10.04;-47.53;20.85;-12.65;113.27;11.2;56.09;3.33;9;-149.07;-33.59;80.65;0.34;-1.89;-0.59;1
0;124.5;-41.41;9.49;234.79;81.82;-10.54;-7.68;-215.55;-156.99;5.51;442.9;13.74;-10.17;81.23;-5.29;67.79;3.66;5.42;-100.23;-29.9;124.61;3.64;4.24;0.77;0
0;-107.99;41.81;5.41;57.24;39.41;-18.59;-6.39;-204.11;-9.02;9.31;-36.19;20.94;-12.67;122.58;22.74;61.84;3.18;9.3;-172.53;-31.51;86.55;-2.18;-1.27;0.04;1
0;109.82;-47.64;8.01;238.71;86.74;-20.21;-8.21;-217.38;-157.22;6.12;467.58;12.34;-10.79;105.96;-15.96;89.72;4.38;6.75;-213.56;-29.16;158.69;0.48;3.15;0.97;0
0;-118.2;42.44;5.42;54.44;39.23;-16.19;-6.68;-218.13;-15.72;9.92;-53.66;18.7;-12.77;115.93;15.52;68.2;3.49;9.49;-167.09;-31.5;92.12;-1.08;-2.03;-0.47;1
0;108.28;-54.2;7.31;216.32;89.46;-13.07;-6.97;-202.94;-169.24;5.18;413.28;12.59;-10.28;80.27;-12.4;94.79;3.81;5.26;-215.28;-24.01;142.66;-0.3;4.04;1.23;0
0;-118.35;41.77;5.23;59.52;45.09;-20.4;-8.92;-217.08;-15.67;11.5;-37.47;17.98;-13.21;123.46;13.85;86.99;4.24;10.04;-219.81;-31.3;123.29;-4.46;-2.74;-0.67;1
0;129.17;-48.72;8.41;218.66;80.39;-8.08;-7.94;-209.49;-153.02;6.04;422.38;15.13;-9.67;62.35;-5.66;95.42;3.9;5.96;-194.19;-26.76;165.91;0.79;4.73;1.41;0
0;-109.79;45.02;5.1;63.81;41.58;-18.67;-8.45;-244.59;-10.97;8.94;-33.04;27.52;-12.59;129.73;23.12;70.84;3.31;10.1;-148.04;-29.36;122.94;-1.43;-1.42;-0.68;1
0;108.54;-55.06;7.52;209.3;86.47;-14.88;-7.57;-208.19;-155.47;4.76;383.13;12.69;-10.08;88.67;-17.35;110.22;3.34;5.77;-206.1;-22.09;202.68;1.03;4.05;1;0
0;-115.75;42.54;5.42;57.63;40.92;-18.11;-7.71;-211.97;-19.74;9.41;-36.02;21.36;-13.04;119.22;13.38;75.1;3.72;9.71;-196.76;-31.9;116.81;-1.45;-2.31;-0.99;1
0;136.77;-49.68;7.95;237.88;84.08;-4.54;-7.71;-216.01;-161.54;5.33;482.55;14.01;-9.81;71.53;-3.79;71.42;3.68;4.8;-190.18;-27.74;97.66;-0.41;4.38;1.68;0
0;-116.58;42.89;6.09;62.16;42.49;-17.71;-10.81;-235.55;-18.88;8.48;-34.85;18.75;-12.91;120.88;11.03;77.83;3.98;9.43;-228.99;-33.81;101.25;1.3;-1.96;-0.75;1
0;121.02;-47.61;8.4;222.81;87.06;-12.24;-8.32;-202.91;-165.35;5.99;439.09;15.98;-9.29;67.3;-7.64;111.82;3.82;6.63;-214.82;-26.65;154.77;2.59;4.08;1.19;0
0;-123.31;49.72;6.24;65.08;40.67;-19.23;-8.45;-232.97;-39.4;9.65;-21.91;28.82;-13.62;128.39;9.61;77.67;4.32;10.67;-168.31;-33.93;117.25;-1.74;-2.44;-1.4;1
0;130.93;-61.24;7.71;210.05;86.67;-10.13;-7.08;-219.68;-179.54;5.76;405.42;15.51;-10.21;77.94;-4.02;77.19;3.51;5.87;-159.41;-27.74;125.37;-0.5;4.46;1.88;0
0;-115.1;51.3;5.78;57.62;35.87;-14.61;-6.55;-230.68;3.08;8.14;-40.36;20.44;-12.44;119.76;15.26;56.64;3.8;8.45;-111.39;-32.53;95.14;0.94;-1.96;-0.77;1
0;124.46;-36.72;8.99;229.42;85.92;-11.45;-8.41;-215.89;-165.78;5.17;443.13;11.68;-10.34;76.74;-5.65;86.28;3.92;5.36;-190.99;-27.24;126.72;2.81;4.47;0.9;0
0;-116.23;48.17;5.6;60.07;40.54;-20.34;-9.65;-226.23;-2.03;7.36;-41.74;26.58;-12.64;131.1;16.29;71.33;3.73;11.3;-196.3;-32.31;89.6;-0.61;-2;-1.08;1
0;128.34;-34.82;7.54;229.23;68.74;-13.27;-7.64;-225.66;-112.42;4.76;437.8;11;-10.01;90.74;-7.06;91.43;3.79;6.02;-194.43;-23.63;122.64;-0.9;4.68;1.28;0
0;-113.87;46.54;6.65;59.93;37.99;-17.14;-8.85;-247.68;-17.74;10.32;-51.5;22.92;-12.93;126.41;16.72;60.98;3.37;9.38;-129.43;-33.32;88.75;3.55;-1.34;-0.41;1
0;117.76;-51.33;7.52;223.08;87.28;-14.64;-8.46;-200.18;-160.47;6.41;441.89;12.5;-10.19;87.43;-14.37;88.95;4.26;5.93;-184.14;-24.37;124.75;0.14;4.09;1.21;0
0;-115.73;47.72;6.13;59.31;40.94;-19.28;-7.59;-221.18;-28.51;10.5;-43.3;17.79;-13.23;124.13;11.86;67.17;3.86;8.86;-171.66;-33.48;86.99;0.65;-2.29;-0.95;1
0;127.47;-53.09;8.12;215.34;86.44;-0.88;-10.77;-214.68;-168.97;5.66;414;22.41;-10.01;67.61;-17.6;102.35;4.06;5.74;-228.48;-25.85;156.61;1.37;5.3;1.14;0
0;-117.33;43.68;5.59;58.5;35.04;-17;-6.1;-227.05;-1.47;8.43;-51.77;21;-12.59;107.36;21.96;67.11;3.67;9.45;-195.89;-31.77;137.08;-0.48;-2.24;-0.26;1
0;124.57;-35.96;7.82;228.63;80.37;-10.87;-7.67;-224.58;-155.29;4.35;426.5;10.11;-10.05;76.5;-1.14;82.99;3.63;5.24;-154.06;-24.03;140.79;-0.37;4.35;0.89;0
0;-120.98;45.59;5.53;63.99;42.56;-20.38;-8.55;-233.87;-24.92;7.97;-38.66;19.44;-13.35;125.93;8.37;81.47;3.71;9.83;-229.81;-32.2;90.84;-3.18;-2.43;-1.05;1
0;124.88;-56.6;7.43;211.85;86.5;-10.46;-9.33;-216.54;-174.56;4.95;416.94;14.62;-9.59;65.98;-11.02;87.87;3.92;6.02;-183.68;-22.57;145.14;0.24;4.66;1.37;0
0;-113.58;42.17;7.07;65.13;42.67;-16.53;-6.31;-253.3;-20.99;11.53;-38.5;24.86;-12.78;120.81;20.64;61.94;3.86;9.56;-125.5;-34.37;117.14;5.97;-1.62;-0.51;1
0;113.67;-52.62;7.14;212.62;86.15;-12.69;-7.86;-207.66;-172.13;3.98;405.61;16.59;-10.05;86.01;-15.41;109.67;3.5;6.69;-190.42;-22.25;188.26;-1.11;4.23;1.15;0
2;-128.83;53.22;6.76;112.18;52.18;-13.05;-5.72;-297.03;-13.51;35.16;25.08;34.19;-12.27;151.1;38.72;96.9;8.24;10.78;-274.43;-28.04;143.73;4.86;1.17;0.87;1
2;114.91;-55.79;6.92;227.42;96.49;-5.28;-27.51;-340.93;-178.61;8.98;421.29;21.45;-5.49;114.38;-28.73;108.73;6.97;6.33;-241.84;-22.65;178.13;6.69;7.41;1.06;1
2;-71.34;34.08;6.67;90.66;30.45;-14.14;-6.11;-225.42;-4.36;29.05;62.01;33.91;-11.23;85.66;30.55;85.3;7.66;10.86;-204.98;-24.54;133.99;-2.06;0.99;1.09;1
2;55.58;-34.73;5.69;209.8;91.14;-3.16;-30.16;-393.67;-151.52;9.61;328.64;25.29;-8.17;122.46;-18.17;52.41;7.32;5.78;-174.2;-28.44;62.2;-1.09;6.5;0.91;1
2;-99.91;51.61;5.54;134.8;50.84;-16.79;-12.09;-307.31;-8.23;32.51;84.16;35.35;-11.4;155.01;27.26;117.91;8.87;11.62;-267.08;-21.07;148.26;-0.23;1.18;0.33;1
2;92.96;-27.27;9.58;269.86;107.19;-13;-23.14;-322.86;-202.77;8.18;452.49;20.94;-7.69;154.65;-28.43;124.28;7.31;8.53;-296.64;-36.03;235.57;5.26;5.99;0.27;1
2;-93.67;34.07;7.55;116.55;47.81;-13.87;-10.28;-264.1;-22.65;16.53;80.37;25.1;-9.88;127.22;39.1;91.04;5.34;10.41;-175.55;-21.88;172.23;5.04;0.93;0.07;1
2;86.41;-42.94;6.6;221.68;94.96;-8.84;-15.24;-384.03;-173.34;10.31;357.79;24.06;-9.24;129.08;-21.93;78.87;6.64;7.1;-150.52;-30.41;183.97;1.35;6.48;1.12;1
2;-127.48;52.67;6.71;140.62;56.05;-12.88;-7.97;-344.74;-7.98;16.88;60.11;23.86;-11.71;152.99;35.78;78.84;5.29;10.37;-165.17;-24.15;137.82;5.09;2.28;0;1
2;101.89;-37.45;9.27;258.59;112.24;-2.79;-25.12;-359.88;-190.53;14.56;439.27;19.82;-6.79;144.72;-27.15;93.63;7.67;5.41;-186.74;-34.38;160.96;8.82;5.94;1.44;1
2;-90.53;37.68;8.39;100;42.79;-17.21;-5.78;-228.26;-14.53;24.55;46.04;27.41;-10.39;123.06;33.77;74.5;5.63;10.99;-163.56;-26.31;147.96;3.78;1.5;0.52;1
2;71.39;-31.31;4.82;203.94;76.98;-2.36;-27.27;-314.9;-134.08;7.81;339.76;20.92;-7.81;123.46;-19.96;77.09;6.53;5.19;-239.8;-26.24;102.95;-1.94;7.19;0.92;1
2;-89.55;41.51;6.91;96.77;38.93;-15.11;-5.97;-232.36;-8.59;30.41;50.3;35.43;-11.18;123.79;42.22;87.63;7.73;11.4;-172.53;-22.3;146.81;-0.14;0.85;0.42;1
2;85.57;-46.45;7.17;215.58;90.75;-1.67;-28.41;-370.39;-175.5;8.85;353.62;18.03;-8.66;112.89;-22.52;70.75;7.29;4.84;-141.55;-35.24;130.11;-0.36;6.51;1.28;1
2;-77.79;43.82;7.34;124.07;48.42;-11.66;-9.75;-276.37;-8.88;25.72;92.35;25.15;-10.45;128.66;36.69;100.12;7.07;10.41;-159.09;-22.44;166.54;2.67;2.05;1.04;1
2;60.07;-29.28;7.12;248.65;115.19;-9.87;-21.12;-335.23;-175.38;12.79;411.96;22.85;-8.33;151.31;-21.12;101.74;6.17;7.58;-240.92;-34.88;203.99;4.19;5.54;0.72;1
2;-96.61;48.46;8.17;97.03;48.02;-14.65;-5.02;-266.62;-8.2;15.87;39.63;28.32;-10.32;128.25;30.16;79.86;4.43;10.24;-217.86;-23.97;117.55;9.98;1.31;0.27;1
2;104.65;-67.82;6.17;204.74;100.76;0.04;-18.53;-305;-210.6;7.96;362.46;19.14;-8.71;92.92;-44.83;83.14;5.76;5.09;-192.42;-27.28;100.76;-1.06;6.69;1.99;1
2;-79;26;7.61;96.26;36.89;-9.71;-4.97;-242.06;-18.4;16.74;36.5;22.86;-10.73;103.31;40.12;78.73;5.74;9.68;-126.11;-24.81;132.25;3.95;2.47;0.93;1
2;47.61;-37.03;5.05;222.16;105.7;-4.12;-19.65;-406.65;-200.51;8.02;344.17;30.86;-8.16;123.11;-13.03;70.55;6.23;7.79;-154.06;-20.22;128.54;-1.14;6.12;1.18;1
2;-89.53;41.88;6.62;93.39;37.48;-17.58;-7.11;-221.36;1.55;23.58;40.84;30.45;-11.59;136.49;19.1;93.23;6.42;10.63;-204.18;-24.62;139.42;-1.18;0.58;0.7;1
2;84.53;-32.92;6.88;219.02;88.62;-10.65;-25.63;-361.45;-150.62;8.19;359.06;20.53;-9.13;138.66;-29.3;60;6.45;5.89;-125.77;-36.69;120.15;-1.81;6.16;0.72;1
2;-71.41;23.48;9.08;106.3;43.48;-10.99;-7.23;-255.84;-25.54;16.91;76.07;26.09;-9.86;105.79;47.77;90.18;5.11;10.87;-201.66;-25.18;153.34;11.86;2.52;0.82;1
2;50.87;-21.08;6.69;229.44;96.17;-3.08;-25.21;-339.9;-169.94;8.3;372.48;19.61;-8.68;120.48;-31.16;57.28;6.97;5.76;-210.71;-30.38;51.99;1.06;5.86;0.75;1
2;-113.38;43.51;7.16;113.65;55.76;-15.38;-9.18;-268.19;-24.29;19.98;53.07;26.97;-10.58;144.51;48.19;90.22;5.6;10.31;-187.43;-24.66;203.28;4.96;2.1;0.47;1
2;102;-56.94;6.58;222.99;90.54;-6.29;-28.53;-354.93;-169.26;10.42;376.26;20.46;-7.37;104.59;-25.43;73.74;7.13;5.63;-167.81;-27.96;146.91;5.02;6.99;1;1
2;-93.17;33.13;5.47;91.55;32.44;-9.16;-5.81;-241.31;-4.69;27.57;18.99;29.4;-11.44;104.74;33.95;89.08;7.16;10.15;-231.89;-20.44;129.41;-2.79;2.37;1.08;1
2;71.49;-32.15;6.49;224.27;92.56;-7.3;-27.35;-386.16;-159.47;8.46;360.79;24.22;-8.21;130.59;-19.4;76.07;7.63;6.53;-158.87;-28.57;149.45;-0.5;6.57;1.1;1
2;-85.09;35.6;5.84;91.82;32.76;-12.78;-8.52;-230.05;-11.98;25.1;43.13;32.51;-10.92;103.6;33.28;81.63;6.84;10.05;-223.43;-21.47;120.64;-2.06;0.69;0.4;1
2;110.94;-27.81;8.23;234.67;87.53;-16.05;-11.83;-315.95;-158.44;8.87;403.96;14.68;-9.8;101.77;-17.89;68;4.69;5.76;-124.25;-34.01;93.69;0.26;5.96;1.02;1
2;-85.71;29.3;7.95;110.18;38.67;-17.81;-9.92;-261.41;-11.69;9.22;48.99;33.17;-10.39;97.9;31.52;99.37;4.51;12.68;-268.94;-23.29;160.3;4.51;3.05;-0.33;1
2;55.01;-21.25;7.16;233.04;100.13;-10.14;-19.63;-340.36;-172.66;7.89;364.02;18.93;-9.15;141.93;-17.66;60.59;5.97;6.62;-154.15;-33.48;109.83;-0.04;4.64;0.8;1
2;-106.41;46.41;8.42;115.06;52.09;-14.44;-6.87;-269;-18.73;14.83;55.34;25.36;-9.93;142.9;23.38;85.64;4.59;11.15;-193.34;-24.81;188.41;8.45;1.52;0.32;1
2;88.57;-57.44;7.95;221.3;110.4;-10.17;-22.71;-403.02;-226.52;21.27;372.65;19.96;-8.67;130.61;-20.59;85.32;6.74;6.95;-137.48;-35.39;213.53;3.24;6.2;1.75;1
2;-108.1;44.71;9.34;125.58;60.25;-12.15;-7.31;-308.54;-24.72;26.01;56.13;36.86;-10.6;159.55;39.11;99.99;5.79;12.14;-295.33;-29.73;155.04;13.43;2;0.29;1
2;98.37;-42.39;7.9;253.8;110.64;-3.96;-21.4;-393.62;-205.59;9.25;415.58;19.88;-7.92;156.81;-22.87;103.6;6.47;6.29;-294.5;-36.05;164.9;4.85;5.68;0.67;1
2;-110.65;48.19;9.88;117.63;56.64;-12.44;-8.54;-304.53;-16.89;23.81;51.4;34.11;-10.31;157.11;34.06;85.19;6.26;11.55;-217.46;-30.89;194.51;14.89;2.32;0.58;1
2;79.71;-45.27;5.9;225.99;110.85;-7.6;-18.58;-332.97;-210.64;9.88;398.87;22.49;-7.92;126.34;-27.33;100.02;6.24;6.51;-251.67;-21.11;170.23;2.27;6.85;1.95;1
2;-87.33;30.16;6.82;96.86;32.11;-15.37;-7.34;-238.15;-13.11;19.83;39.06;31.03;-11.86;94.86;26.56;87.21;6.08;11.05;-132.25;-24.62;156.04;-0.94;1.36;0.49;1
2;61.23;-35.86;7.27;228.13;99.37;-6.2;-23.05;-365.07;-192.57;12.59;365.99;20.34;-8.5;115.64;-18.96;69.91;6.76;6.3;-199.36;-31.46;122.77;0.44;5.73;1.93;1
2;-86.17;38.02;7.82;107.74;46.44;-13.4;-8.91;-238.92;-28.89;25.19;74.98;31.11;-9.96;114.53;37.72;94.78;6.55;10.56;-249.23;-27.19;164.75;2.16;1.07;0.46;1
2;89.03;-36.95;7.15;213.09;89.05;-0.62;-19.93;-325.69;-166.64;7.64;351.83;18.17;-8.95;110.14;-28.61;60.05;5.59;4.57;-167.21;-34.59;94.6;-1.04;6.83;1.11;1
2;-70.29;27.28;9.31;98.57;39.01;-16.01;-8.93;-236.28;-20.97;16.6;66.8;25.03;-10.14;91.37;49.94;86.64;5.28;11.08;-161.66;-27.74;165.09;6.15;2.09;0.31;1
2;44.09;-38.74;6.96;213.63;104.78;-9.23;-24.99;-341.21;-206.63;13.22;338.08;18.79;-8.99;113.16;-26.31;86.04;6.63;6.79;-225.91;-32.75;124.69;-1.81;5.08;1.17;1
2;-106.97;53.35;6.53;117.17;55.2;-14.46;-8.53;-270.96;-4.46;31.59;47.98;31.79;-10.88;166.69;34.25;78.8;7.57;10.8;-185.63;-21.1;158.41;-1.07;1.87;1.24;1
2;89.84;-44.89;7.37;246.56;120.4;-3.27;-21.5;-392.43;-206.23;9.57;403.02;21.19;-7.74;168.86;-25.08;88.52;6.79;6.85;-154.34;-30.68;128.82;2.58;6.16;0.75;1
2;-93.05;36.53;8.31;105.58;42.14;-16.81;-10.15;-265.62;-23.22;24.47;57.32;29.49;-10.33;108.57;39.99;95.84;7.06;11.69;-218.47;-25.35;188.4;3.38;1.27;0.48;1
2;86.21;-47.06;6.02;213.99;87;0.77;-21.15;-395.53;-172.68;8.04;352.87;16.98;-8.52;100.18;-23.1;74.81;6.63;4.12;-256.54;-28.57;114.08;-1.95;7.06;1.74;1
2;-76.87;34.09;7.43;87.58;29.78;-10.85;-5.5;-232.32;-8.03;26.22;35.7;30.24;-11.08;80.11;18.46;79.83;7.18;10.52;-175.16;-25.27;126.58;-0.67;2.15;1.12;1
2;49.85;-22.47;7.77;225.63;102.97;-5.87;-17.75;-372.35;-190.64;9.03;376.35;20.92;-8.74;124.66;-26;80.13;6.13;6.69;-200.65;-30.09;92.01;0.05;5.59;1.38;1
2;-88.84;30.11;7.4;101.85;39.94;-11.78;-5.78;-248.11;-34.08;19.96;51.52;30.66;-10.42;101.54;46.31;85.27;5.65;9.73;-179.45;-25.05;196.59;-0.48;1.05;0.63;1
2;94.58;-38.1;7.38;228.18;81.26;-4.14;-26.9;-377.75;-135.85;16.55;389.85;19.12;-8.78;98.75;-24.85;67.67;6.69;4.84;-163.5;-33.08;107.85;-0.71;5.92;0.98;1
2;-64.26;29.81;9.26;100.17;44.73;-24.53;-11.01;-220.3;-28.12;28.83;85.56;36.25;-10.08;112.29;45.78;121.32;7.64;14.23;-293.6;-26.56;205.79;5.86;1.95;0.08;1
2;70.73;-25.39;4.26;183.99;102.18;-7.07;-3.04;-187.86;-199.9;7.47;321.17;16.68;-7.51;113.16;-15.69;77.71;4.47;6.42;-165.36;-18.98;85.9;0.21;5.22;1.92;1
2;-122.14;32.67;7.76;107.54;46.19;-13.42;-24.22;-324.79;-72.84;28.78;16.22;33.32;-12.2;144.68;21.9;106.27;8.32;11.66;-300.79;-30.15;181.83;0.6;2.36;-0.47;1
2;83.34;-55.58;6.45;216.75;107.66;-5.66;-27.96;-386.09;-220.76;13.03;357.51;18.67;-7.85;143.24;-26.72;64.82;6.41;5.74;-160.75;-30.96;131.08;-0.52;6.02;1.47;1
2;-68.26;30.02;7.67;98.08;32.03;-13.56;-7.54;-254.69;-24.96;28.09;48.85;34.86;-9.89;112.54;18.29;107.56;7.42;12.33;-197.5;-23;173.86;0.38;1.78;0.62;1
2;59.36;-20.58;7.32;230.52;84.36;-3.77;-19.31;-346.4;-150.89;5.62;357.34;17.59;-8.7;114.16;-15.51;105.41;4.67;5.19;-243.31;-33.34;224.87;-1.17;5.75;0.58;1
2;-87.66;30.37;8.08;95.37;42.18;-9.83;-5.44;-247.23;-22.28;21.36;36.07;25.64;-10.46;122.31;52.39;82.85;5.33;10.28;-155.84;-27.35;165.6;3.57;1.33;0.25;1
2;126.47;-41.32;6.52;206.46;92.5;-1.48;-5.58;-234.92;-184.83;8.9;392.84;17.53;-6.9;113.15;-34.51;57.04;4.13;4.9;-132.88;-17.9;95.49;2.07;6.36;2.99;1
2;-93.36;20.12;9.35;109.42;44.08;-16.19;-27.06;-363.64;-81.84;26.24;49.87;30.08;-10.97;97.3;25.9;114.15;8.48;11.25;-222.93;-33.74;209.81;1.69;2.39;-0.61;1
2;64.91;-27.82;7.96;231.16;81.02;-7.33;-23.32;-370.86;-134.21;12.04;360.96;18.23;-8.85;106.5;-20.34;65.81;5.97;4.95;-148.7;-35.14;124.4;-1.8;5.4;1.07;1
2;-108.36;48.85;8.55;110.77;53.57;-16.59;-8.68;-259.02;-13.33;26.72;39.81;30.16;-10.35;144.13;48.84;92.19;6.22;11.8;-191.34;-26.55;185.83;7.31;1.66;0.2;1
2;84.76;-48.06;7.95;210.62;94.94;-1.45;-19.8;-351.52;-179.34;9.82;344.42;21.11;-7.21;122.09;-35.79;89.17;5.71;5.64;-265.9;-33.56;113.23;1.15;7.22;1.78;1
2;-73.29;30.64;8.02;89.04;32.64;-17.42;-4.95;-214.75;-14.1;29.09;41.83;36.46;-10.84;75.89;28.14;111.33;7.6;12.88;-249.3;-26.39;180.45;-0.25;1.05;1.01;1
2;54.59;-35.81;7.73;205.39;86.52;-1.61;-21.53;-366.73;-161.98;12.31;307.07;23.58;-8.44;113.88;-12.23;72.42;5.86;5.69;-218.28;-34.49;146.53;-0.37;6.56;1.62;1
2;-105.64;55.8;7.45;115.96;43.13;-25.81;-13.22;-254.67;-1.8;32.69;68.23;38.34;-10.64;130.12;34.34;108.55;9.08;13.69;-212.42;-24.19;202.25;2.89;-0.37;-0.38;1
2;139.6;-66.08;5.29;210.57;106.24;-8.15;-3.25;-179.61;-217.85;8.13;407.58;22.47;-7.31;107.15;-11.28;89.05;3.22;6.65;-174.8;-16.32;193.95;0.4;6.61;2.86;1
2;-91.45;32.32;9.81;107.75;45.11;-14.93;-22.37;-288.25;-87.98;34.2;59.37;35.31;-11.09;129.06;19.34;119.78;9.77;11.16;-230.84;-36.19;213.35;3.99;2.3;-0.85;1
2;51.2;-26.5;7.56;221.28;96.35;-3.41;-23.67;-395.29;-151.28;15.71;348.5;17.07;-9.18;125.78;-22.19;67.51;5.85;4.9;-161.25;-34.66;104.72;-1.55;6.03;1.35;1
2;-97.36;45.94;7.66;105.51;50.05;-14.95;-7.55;-241.75;-12.11;31.11;46.38;38.02;-10.27;141.6;30.92;109.28;6.95;12.48;-282.66;-22.77;177.83;3.09;1.05;0.32;1
2;79.67;-43.12;8.23;219.96;101.67;-4.84;-20.02;-353.29;-197.42;20.82;371.53;21.65;-7.98;130.2;-21.35;79.76;6.33;5.47;-186.8;-35.45;128.4;1.04;6.51;1.91;1
2;-65.65;30.15;10.19;107.24;47.22;-32.42;-14.17;-218.71;-27.14;25.77;85.04;34.37;-9.79;134.77;42.08;122.42;7.45;15.4;-230.95;-28.9;256;8.11;1.39;-0.87;1
2;-150.56;57.04;7.63;135.27;58.58;-19.79;-7.97;-337.83;-15;24.66;30.14;33.03;-12.59;146.62;53.38;86.67;6.67;12.29;-182.71;-28.84;173.04;1.87;1.28;0.26;1
2;124.42;-56.95;8.73;240.24;111.31;-4.33;-26;-387.84;-190.24;17.47;414.66;24.86;-5.96;147.45;-31.32;72.26;6.36;5.31;-195.59;-32.56;125.46;5.44;5.96;1.76;1
2;-107.31;46.89;7.64;112.87;43.71;-16.1;-7.29;-259.71;-4.18;27.97;37.36;35.47;-10.82;129.97;31.77;87.18;6.72;12.63;-185.47;-27.24;145.53;-0.42;1.14;0.06;1
2;93.8;-48.29;6.78;221.03;108.27;-9.74;-16.02;-356.41;-181.33;10.05;372.42;19.85;-7.62;134.77;-29.07;73.46;5.02;5.68;-229.96;-35.77;102.62;0.15;5.52;1.76;1
2;-90.61;40.68;8.43;110.24;47.57;-24.48;-10.52;-264.31;-19.41;26.21;57.79;35.85;-10.26;151.43;54.54;120.63;7.43;13.64;-251.41;-25.54;242.74;3.15;0.77;-0.03;1
2;104.99;-51.12;4.21;185.26;99.66;-10.78;-3.14;-190.57;-201.09;8.79;345.62;15.17;-7.79;118.03;-21.1;75.13;3.42;5.42;-151.45;-15.93;164.84;-1.06;5.85;2.57;1
2;-99.27;31.84;10.58;110.09;46.17;-23.09;-22.95;-282.89;-76.9;25.51;56.26;27.83;-11.07;141.49;11.14;114.25;8.32;12.69;-242.85;-35.79;213.08;10.17;1.41;-1.37;1
2;63.06;-33.25;6.81;209.85;91.06;-8.06;-25.9;-359.31;-179.06;8.36;327.03;14.76;-8.88;102.75;-27.93;79.91;7.22;5.78;-161.86;-34.65;125.95;-1.62;5.13;0.45;1
2;-88.55;30.67;8.97;120.35;48.5;-19.54;-10.63;-267.8;-32.26;18.52;67.52;23.84;-9.95;102.29;38.19;108.56;6.09;11.89;-182.3;-24.86;241.15;10.24;3.18;0.35;1
2;61.48;-22.2;7.79;250.14;99.15;-4.47;-25.29;-371.34;-179.71;13.99;398.75;19.05;-8.79;111.73;-26.57;81.05;6.91;5.96;-174.35;-34.98;138.12;0.42;5.69;1.08;1
2;-123.75;53.82;8.49;133.16;66;-21.71;-11.68;-302.28;-37.91;20;66.33;23.48;-10.33;146.77;39.9;101.26;5.72;11.57;-179.09;-25.73;256.02;9.12;1.93;0.01;1
2;119.16;-69.39;7.74;233.3;109.87;-1.69;-18.67;-370.84;-218.79;25.4;407.13;20.79;-8;143.17;-21.92;87.43;6.63;5.56;-209.5;-34.31;129.74;1.91;6.59;2.78;1
2;-66.05;31;10.06;101.61;38.15;-15.76;-6.73;-232.18;-10.7;27.38;61.75;33.09;-9.82;148.84;27.5;94.95;6.45;12.66;-217.06;-28.66;153.26;8.63;1.99;0.15;1
2;45.79;-26.18;7.12;216.94;98.26;-7.9;-24.68;-337.53;-166.38;16.7;337.83;15.73;-8.67;123.01;-15.6;64.2;6.11;4.67;-134.48;-37.03;110.82;-1.66;4.94;1.21;1
2;-90.66;37.77;9.61;106.72;44.16;-19.18;-8.42;-247.9;-21.02;23.89;55.74;29.66;-9.22;131.68;51.93;91.46;5.87;12.7;-189.66;-26.68;209.53;12.57;1.44;-0.37;1
2;120.84;-41.66;3.99;165.66;84.13;-1.6;-3.44;-183.47;-170.54;8.21;315.5;19.16;-8.13;92.67;-28.97;65.01;2.84;4.67;-182.77;-19.16;104.1;0.1;6.61;2.57;1
2;-95.24;21.7;11.54;106.12;40.34;-21.43;-26.06;-317.99;-77.49;28.61;38.51;33.79;-11.32;125.59;5.84;111.01;9;12.88;-179.51;-35.54;192.35;12.17;1.81;-1.18;1
2;79.66;-25;4.11;199.02;89.49;-6.01;-2.25;-211.9;-174.23;8.65;349.77;16.42;-7.01;103.27;-1.79;91.67;2.57;5.03;-162.62;-17.25;189.74;0.21;5.07;1.82;1
1;-106.6;20.72;5.48;60;19.48;-13.07;-3.53;-233.74;0.27;6.94;-50.45;17.28;-10.39;90.32;12.51;49.04;1.69;6.25;-137.45;-21.63;113.48;3.8;3.22;0.99;1
1;97.59;-42.38;7.97;196.99;90.15;-9.39;-8.78;-320.99;-176.81;8.35;367.21;19.07;-9.98;101.98;5.67;84.92;4;6.43;-216.36;-36.31;144.21;-0.9;5.5;1.37;1
1;-106.75;34.99;6.82;72;26.01;-14.77;-4.62;-262.38;5.5;6.78;-46.29;23.67;-10.3;120.8;3.93;54.07;2.44;7.93;-175.03;-23.45;79.98;7.52;3.68;0.62;1
1;84.22;-58.23;7.59;195.3;92.15;-9.14;-16.47;-307.49;-193.7;11.45;343.58;18.56;-9.87;130.69;-5.67;87.04;4.71;4.58;-273.25;-37.73;142.79;-2.9;4.93;1.84;1
1;-104.54;30.35;7.96;65.76;25.63;-9.38;-5.63;-256.76;2.18;6.28;-40.16;23.96;-9.99;126.52;8.86;67.46;2.28;7.76;-201.23;-20.9;114.05;12.66;3.14;0.68;1
1;111.29;-47.44;6.35;170.33;70.25;-4.4;-11.93;-287.24;-133.86;5.91;309.74;20.08;-9.04;91.52;-6.56;78.21;3.57;3.84;-228.26;-37.08;108.46;-3.12;6.37;1.7;1
1;-106.6;29.9;5.99;59.66;25.63;-12.44;-3.26;-233.53;6.24;8.83;-44.19;23.32;-10.97;110.51;6.72;66.74;3.06;8.66;-187.68;-27.71;120.59;7.09;2.17;0.74;1
1;89.52;-45.09;6.65;184.81;83.6;-6.19;-8.61;-286.6;-171.41;7.4;308.74;21.83;-9.45;90.56;-1.44;59.58;3.59;4.73;-193.66;-30.65;99.3;-0.08;5.87;1.62;1
1;-103.35;31.32;5.81;59.04;28.94;-12.28;-1.95;-230.5;-1.62;5.67;-38.96;23.56;-10.69;96.35;17.67;63.74;2.05;8.75;-179.15;-27.38;91.86;4.34;1.24;0.8;1
1;97.62;-32.57;7.98;205.91;84.7;-7.17;-9.12;-346.52;-164.24;7.78;325.82;27.5;-10.22;95.25;-4.93;103.1;3.38;6.41;-195.13;-36.76;183.03;-1.61;6.46;1.16;1
1;-117.29;34.26;8.28;64.79;30.74;-18.47;-2.76;-251.59;4.83;7.44;-62.51;29.86;-10.58;133.3;-6.8;64.49;2.18;9.49;-245.9;-23.35;90.47;11.91;3.02;0.99;1
1;116.87;-40.63;7.94;208.81;81.21;-15.9;-9.17;-330.57;-155.94;7.83;384.96;20.39;-9.55;83.98;6.29;53.53;4.23;7.18;-89.54;-35.68;114.46;-2.01;7.28;1.94;1
1;-96.66;18.61;7;65.21;25.13;-23.68;-6.56;-233.82;-19.72;4.37;-31.02;28.11;-10.41;84.02;15.47;63.91;2.74;9;-213.5;-21.38;82.08;10.32;2.52;0.27;1
1;88.04;-52.42;6.21;190.89;79.94;-3.85;-3.75;-304.97;-139.14;7.74;329.98;21.45;-9.82;82;-11.06;101.4;3.21;4.78;-315.9;-30.74;164.93;-3.84;5.64;2.46;1
1;-105.21;37.7;5.1;57.16;24.22;-10.09;-3.48;-246.01;11.51;5.28;-45.88;22.88;-10.6;96.22;17.29;64.97;1.99;8.42;-65.5;-19.06;90.86;2.44;2.33;0.67;1
1;88.46;-48.47;8.16;188.95;94.51;-6.09;-18.18;-299.05;-183.41;7.45;331.72;22.93;-9.67;102.92;-25.41;79.85;5.14;5.37;-232.15;-35.24;171.19;-1.79;6.44;1.63;1
1;-89.93;17.88;5.39;63.15;27.92;-14.97;-3.94;-223.89;-9.16;9.48;-14.56;18.18;-10.07;116.49;20.51;80.26;3.34;8.86;-231.41;-20.99;153.1;5.93;2.3;1.01;1
1;67.76;-53.4;7.22;205.16;103.96;-6.79;-7.14;-296.94;-201.4;8.96;370.87;23.7;-10.41;88.38;-13.03;91.88;4.3;5.75;-302.05;-29.8;160.51;-1.85;5.5;2.08;1
1;-96.18;38.63;4.84;59.86;25.09;-10.18;-6.16;-218.34;11.86;7.81;-32.73;19.46;-10.99;103.52;17.09;63.76;2.95;7.81;-82.21;-21.26;131.29;2.69;2.24;0.44;1
1;87.85;-41.96;7.65;201.01;82.87;-13.29;-9.29;-293.47;-164.4;10.17;350.72;17.46;-9.6;100.17;-23.16;67.38;4.2;6.45;-128.93;-35.86;121.49;-1.85;6.09;2.44;1
1;-100.68;31.7;7.09;70.53;28.98;-17.9;-6.05;-217.26;-2.69;5.78;-5.19;21;-11.14;99.21;-2.33;77.17;3.14;9.09;-216.72;-24.93;111.8;8.3;2.17;0.32;1
1;102.62;-81.05;6.2;196.98;99.58;-2.58;-14.44;-274.9;-219.35;8.89;371.78;21.49;-8.94;82.95;-13.41;90.37;4.86;5.42;-236.73;-32.41;107.6;-0.09;6.05;2.49;1
1;-109.62;18.86;5.79;61.94;26.02;-12.24;-4.32;-239.07;-4.8;8.92;-46.37;20.02;-11.04;102.36;35.18;89.06;3.44;8.19;-197.98;-30.76;186.78;4.34;2.41;0.5;1
1;106.52;-21.62;6.75;200.82;78.95;-7.98;-4.3;-279.6;-129.2;6.5;363.71;18.11;-9.62;104.59;-16.4;108.5;3.21;5.37;-206.99;-35.23;206.79;-2.64;6.02;2.06;1
1;-108.95;38.59;6.36;58.31;28.71;-14.53;-5.56;-210.09;8.16;7.06;-29.63;24.1;-11.14;105.01;7.02;47.5;2.93;8.92;-149.45;-27.88;43.2;6.14;1.79;0.15;1
1;82.96;-41.1;6.87;196.87;89.13;-9.67;-12.62;-316.95;-168.98;9.18;329.04;23.25;-9.63;106.09;-17.62;90.01;4.24;7.38;-169.88;-29.58;122.01;-1.48;5.79;1.51;1
1;-112.19;22.03;5.03;49.93;21.79;-13.02;-4.02;-215.91;0.02;5.63;-59.95;20.62;-11.28;98.82;5.58;66.39;2.15;7.95;-207.95;-20.75;114.66;4.88;2.23;1.15;1
1;91.14;-53.39;8;195.13;90.56;-14.25;-8.52;-311.77;-196.19;6.8;335.83;19.44;-10.02;115.15;6.51;63.75;3.59;5.99;-201.39;-37.26;113.68;-1.09;4.93;2.04;1
1;-114.38;35.52;6.47;58.02;24.98;-11.28;-3.69;-226.37;3.8;6.15;-43.63;28.92;-11.15;110.42;1.8;62.01;2.46;9.61;-185.48;-19.61;109.53;8.14;2.23;0.66;1
1;95.99;-53.9;7.37;199.29;89.89;-2.53;-9.11;-302.26;-177.57;7.6;335.81;24.25;-9.17;93.74;-7.49;91.16;3.45;5.69;-234.43;-34.11;101.98;0.8;5.46;2.04;1
1;-106.77;37.9;6.05;59.81;22.44;-8.93;-7.98;-224.8;18.06;8.85;-52.06;15.11;-11.23;110.67;2.51;50.76;3.17;6.82;-151.29;-24.86;153.52;3.53;1.88;0.77;1
1;96.26;-52.49;8.33;206.56;95.33;-15.13;-5.56;-303.49;-195.45;10.41;355.8;19.65;-9.86;104.26;-8.3;76.65;3.49;6.78;-148.8;-35.32;119.51;-0.44;5.94;2.59;1
1;-103.88;26.44;6.34;60.42;23.7;-10.35;-8.18;-229.97;0.72;5.92;-46.71;28.03;-10.84;92.36;8.85;50.62;2.72;8.44;-175.88;-19.14;60.39;6.05;2.76;0.55;1
1;89.2;-62.56;7.76;208.97;101.96;-10.22;-9.03;-298.49;-204.42;9.04;376.22;16.51;-10.31;107.6;-7.26;94.13;4.22;5.94;-254.48;-37.27;158.03;-1.92;4.82;2.15;1
1;-104.69;31.35;7.26;62.2;25.6;-11.26;-9.48;-242.36;0.77;8.83;-48.4;26.28;-10.46;113.93;12.21;46.67;3.29;8.03;-145.45;-21.26;78.88;8.92;2.87;0.42;1
1;94.23;-38.45;7.83;210.17;88.07;-14.31;-11.63;-317.87;-176.76;9;375.11;18.15;-10.5;109.41;-16.38;81.52;4.68;6.72;-162.43;-38.37;123.51;-2.55;5.42;1.73;1
1;-100.05;17.48;6.62;58.28;25.58;-14.37;-6.92;-220.57;-3.04;4.6;-49.72;24.77;-10.22;108.63;-4.55;60.41;2.34;8.66;-198.51;-19.93;78.73;10.42;2.91;0.77;1
1;97.78;-49.44;8.67;227.02;93.5;-7.94;-16.26;-331.04;-181.37;8.39;399.73;18.78;-10.96;104.18;-3.74;84.27;5.28;5.7;-214.01;-38.18;157.87;-1.3;4.94;1.47;1
1;-113.7;21.35;8.67;59.41;30.63;-9.58;-8.81;-256.53;-5.87;9.37;-57.27;20.64;-10.79;137.53;16.42;68.37;3.33;7.4;-196.31;-27.56;147.91;16.25;2.61;0.84;1
1;91.1;-33.28;7.84;210.21;79.85;-8.76;-10.18;-232.14;-154.8;9.27;370.84;12.84;-10.53;109.77;-7.91;75.32;4.04;5.64;-187.55;-36.89;96.52;-1.27;4.51;1.87;1
1;-107.72;23.23;7.46;45.48;24.04;-8.74;-6;-211.73;-9.97;7.15;-47.1;12.35;-10.64;76.91;4.91;49.32;2.42;6.63;-127.39;-24.55;56.67;13.82;2.09;0.53;1
1;93.22;-40.6;8.06;192.93;90.29;-9.76;-7.23;-317.13;-167.49;8.01;316.8;16.7;-10.05;102.51;-0.13;59.25;3.67;5.97;-171.44;-33.76;88.27;-1.1;5.47;1.9;1
1;-115.06;27.28;6.64;56.05;24.32;-12.52;-6.48;-231.4;-0.43;4.99;-64.5;25.45;-10.52;110.82;0.39;51.05;2.71;7.88;-147;-18.03;58.85;14.2;3.14;0.71;1
1;113.74;-45.55;8.46;203.02;81.67;-11.83;-17.01;-271.69;-179.71;10.12;360.43;19.67;-10.18;78.11;-9.33;94.2;5.09;7.02;-172.91;-38.07;147.59;-0.65;5.9;1.72;1
1;-107.86;12.69;7.79;52.19;24.13;-12.66;-6.76;-222.07;-11.93;8.28;-70.32;18.37;-10.46;112.4;11.25;62.57;2.4;6.3;-187.25;-25.54;100.9;10.48;2.71;1.12;1
1;94.64;-37.5;8.29;208.8;80.93;-10.88;-12.39;-269.99;-157.04;7.26;386.62;20.52;-10.39;84.92;2.13;97.9;4.59;6.91;-245.56;-33.93;168.11;-2.06;4.91;1.39;1
1;-118.67;24.59;6.18;43.83;22.97;-9.21;-5.89;-211.1;5.25;8.34;-77.11;22.55;-11.1;122.48;4.39;72.1;2.61;7.48;-215.09;-20.26;68.29;11.43;2.92;0.61;1
1;102.29;-41.48;7.36;201.78;82.49;-7.74;-12;-235.68;-145.81;7.48;364.85;10.98;-9.6;83.66;9.71;67.34;4.03;4.25;-200.63;-36.21;97.28;-0.18;4.55;1.88;1
1;-120.51;37.18;5.99;46.29;22.45;-7.57;-4.13;-224.99;9.6;10.02;-72.05;22.38;-10.98;115.32;-5.32;57.44;2.56;7.12;-175.64;-27.82;93.45;8.01;2.49;0.89;1
1;106.92;-55.65;7.4;197.31;90.38;-10.74;-10.19;-291.71;-179.48;7.8;347.18;14.28;-9.61;79.41;3.32;65.98;4.22;5.14;-164.8;-36.93;98.69;0.5;5.09;1.95;1
1;-119.06;28.95;7.81;59.8;25.95;-14.6;-1.48;-251.18;3.34;9.17;-40.61;27.63;-10.89;118.22;-4.08;52.54;2.19;9.49;-188.33;-28.04;37.99;13.34;2.7;1.26;1
1;91.2;-35.97;7.15;197.37;82.94;-7.3;-11.81;-290.3;-151.66;6.82;347.17;14.88;-9.22;74;10.5;74.04;3.76;4.96;-217.98;-37.12;110.5;-1.13;4.98;1.23;1
1;-110.36;35.55;7.34;63.67;25.24;-10.97;-6.37;-252.06;10.25;9.62;-51.87;24.38;-10.73;122.69;-2.23;51.68;2.99;7.86;-172.52;-26.99;70.6;12.02;3.32;0.74;1
1;110.6;-48.43;8.7;204.76;90.06;-12.75;-16.62;-264.7;-180.13;8.88;362.76;14.79;-9.43;96.43;5.52;62.48;4.82;4.92;-184.84;-37.8;145.5;-0.31;5.98;2.02;1
1;-111.04;31.49;8.8;67.73;33.38;-17.91;-7.53;-242.92;-0.15;10.08;-13.32;21.47;-10.84;136.36;5.38;80.5;3.52;9.24;-226.3;-23.67;124.31;13.43;1.75;0.63;1
1;100.95;-40.92;8;203.25;89.31;-13.15;-11.4;-269.35;-159.24;12.21;364.05;17.46;-9.75;127.83;11.86;84.24;4.18;4.91;-191.12;-37.57;142.58;-1.77;5.33;2.09;1
1;-108;33.6;7.47;52.01;26.5;-11.24;-8.94;-222.75;6.44;9.45;-40.25;26.07;-10.84;135.14;10.79;75.01;3.87;9.01;-221.16;-24.18;73.65;12.65;1.84;0.17;1
1;90.37;-41.99;7.53;197.52;98.27;-13.43;-8.68;-269.85;-188.36;8.86;340.55;17.42;-9.43;107.14;-13.23;86.2;4.25;5.84;-194.68;-30.55;109.14;0.91;5.27;2.01;1
1;-106.92;28.59;5.13;54.5;26.52;-13;-6.69;-208.87;-0.42;5.69;-47.09;28.42;-10.8;101.12;7.54;80.69;2.93;9.91;-254.82;-17.7;103.51;7.46;2.69;0.31;1
1;90.77;-53.67;8.3;198.18;93.57;-8.28;-22.44;-285.96;-188.63;10.65;345.25;20.77;-9.41;87.87;-12.96;97.34;6.3;6.6;-238.03;-37.83;187.88;0.18;6.05;1.85;1
1;-106.37;18.69;6.67;56.75;27.19;-17.31;-3.1;-239.71;-3.7;9.86;-48.14;26.16;-10.29;123.54;20.11;99.28;2.47;9;-295.52;-27.2;170.24;10.23;3.33;1.2;1
1;89.61;-33.8;7.88;201.5;93.41;-12;-18.4;-274.75;-181.33;7.82;380.63;18.11;-10.58;95.02;-14.5;60.34;5.6;6.65;-176.68;-36.86;145.49;-1.61;4.73;0.94;1
1;-114.28;24.24;6.87;57.92;26.6;-16.09;-6.85;-243.93;-5.64;8.13;-43.3;23.49;-10.69;115.61;4.97;66.13;3.05;8.6;-207.42;-24.27;85.26;7.61;1.84;0.54;1
1;93.41;-48.39;8.41;195.48;91.87;-7.04;-15.13;-285.06;-181.31;9.13;336.39;17.45;-9.91;107.11;-1.23;79.17;4.55;5.76;-238.96;-37.53;159.35;-0.94;5.62;2.01;1
1;-109.83;31.76;8.32;53.7;31.98;-9.77;-6.85;-230.42;-5.82;9.7;-31.98;19.68;-10.58;146.9;3.17;72.25;3.93;7.99;-196.98;-26.89;114.94;13.71;1.78;0.36;1
1;90.54;-51.99;8.35;190.95;90.97;-7.07;-14.34;-293.9;-176.78;10.02;331.02;15.04;-9.83;95.14;-10.57;90.47;4.63;5.98;-229.27;-36.61;127.44;-1.14;5.68;2.18;1
1;-115.69;24.72;8.05;47.66;30.07;-11.05;-7.15;-248.25;-4.42;9.02;-65.21;22.96;-10.67;135;8.53;71.55;2.84;7.8;-202.5;-25.75;104.54;14.14;2.69;0.73;1
1;95.07;-43.99;8.87;200.27;91.1;-12.45;-13.84;-285.44;-170.2;9.32;357.31;18.94;-9.87;95.66;-8.28;73.55;4.93;6.66;-182.17;-37.13;119.13;0.38;5.41;1.85;1
1;-106.67;19.02;7.53;53.34;25.35;-10.18;-8.29;-210.55;-6.27;6.13;-60.28;18.77;-10.95;108.61;8.2;65.5;3.1;7.29;-205.01;-22.15;80.89;8.34;2.72;0.36;1
1;104.32;-57.48;8.2;202.2;94.34;-10.89;-11.77;-270.59;-187.91;10.64;352.92;16.78;-9.39;106.3;-0.88;85.97;4.53;5.46;-186.52;-36.19;137.77;-0.38;5.64;2.33;1
1;-117.38;28.36;6.96;49.2;21.16;-16.5;-5.26;-220.3;9.82;9.51;-74.37;21.31;-11.07;109;9.51;67.37;2.58;7.88;-202.34;-28.23;137.65;7.47;2.5;0.83;1
1;103.86;-38.96;7.5;196.45;89.77;-8.6;-7.41;-264.79;-168.56;8.11;344.93;15.81;-9.3;92.87;-7.31;66.53;3.66;5.59;-168.64;-29.38;118.5;0.12;5.58;1.43;1
1;-111.24;22.32;6.68;58.57;28.64;-11.64;-8.76;-220.86;-3.33;7.05;-49.37;21.61;-11.45;103.01;14.46;68.59;3.48;8.67;-186.9;-28.32;87.08;9.52;2.33;0.34;1
1;89.96;-52.58;8.39;203.55;101.01;-8.92;-8.12;-282.22;-194.27;10.13;352.72;13.64;-9.88;103.54;-8.63;87.31;4.01;5.92;-235.3;-36.01;132.03;1.11;5.17;2.29;1
1;-105.13;26.84;6.48;58.56;26;-8.43;-5.99;-213.93;-2.16;5.64;-36.43;23.24;-10.38;101.52;13.97;59.84;2.65;8.41;-143.19;-19.89;74.81;9.11;2.79;0.33;1
1;91.88;-42.39;7.4;209.03;95.75;-12.11;-8.08;-305.08;-180.42;9.36;364.05;17.15;-10.32;97.57;-7.85;71.82;3.93;6.83;-146.09;-34.58;119.17;-0.84;5.32;1.84;1
1;-112.5;27.66;6.91;62.76;25.74;-14.64;-3.77;-219.76;-3.15;5.45;-34.55;24.86;-10.99;102.13;-4.12;58.05;2.28;9.23;-176.33;-22.45;94.59;10.49;1.66;0.75;1
1;102.77;-53.55;8.42;213.91;93.34;-11.41;-14.31;-290.19;-187.04;6.87;358.89;16.03;-10.01;83.61;5.73;85.15;4.36;6.06;-185.3;-35.1;182.68;-0.38;5.24;1.61;1
1;-112.09;24.95;7.28;58.53;24.8;-10.82;-7.14;-230.63;1.29;8.71;-57.04;22.49;-10.67;122.14;-3.63;67.8;2.69;8.04;-213.86;-20.98;89.5;11.72;2.81;0.96;1
1;97.15;-45.51;8.65;206.98;93.22;-11.28;-6.97;-300.28;-188.28;9.88;368.63;18.07;-10.02;90.82;5.13;92.11;3.84;6.31;-236.12;-36.23;175.92;0.86;5.34;1.75;1
1;-106.81;26.89;7.02;61.31;30.29;-9.46;-9.52;-230.52;0.1;5.16;-43.75;26.25;-10.93;107.52;19.64;56.49;3.26;8.25;-128.07;-20.34;123.39;9.39;2.64;-0.02;1
1;100;-38.34;8.34;203.13;93.98;-12.81;-11.12;-315.19;-170.48;8.8;369.33;16.79;-9.74;111.04;-12.27;70.04;4.05;6.9;-155.47;-37.87;121.28;-0.73;5.52;1.99;1
1;-108.12;21.93;8.25;64.72;27.79;-9.99;-7.19;-237;-7.71;5.72;-40.66;27.28;-10.35;104.64;3.58;58.92;3.07;8.9;-184.76;-23.9;72.02;14.2;3.53;0.55;1
1;95.95;-60.64;7.26;203.4;96.64;-7.5;-8.12;-318.65;-196.22;8.35;357.51;21.5;-9.37;93.12;-2.79;72.15;3.59;5.86;-163.85;-31.4;128.11;0.38;5.79;2.56;1
1;-101.15;32.5;6.28;66.56;25.5;-15.77;-6.62;-233.58;3.13;6.25;-33.54;28.13;-11.05;91.16;0.03;51.85;3.21;9.25;-196.06;-21.38;60.08;5.62;1.85;0.38;1
1;110.68;-44.8;8.23;225.03;87.3;-5.26;-10.56;-357.54;-160.05;8.64;414.04;23.24;-9.82;96.22;4.78;62.07;4.46;6.03;-158.19;-37.9;132.05;0.56;6.84;1.76;1
1;-102.35;30.52;7.57;74.13;29.76;-19.09;-5.53;-268.53;-3.38;6.87;-25.89;34.9;-10.43;104.37;10.67;67.88;2.99;10.7;-239.85;-23.09;70.88;12.77;2.46;0.69;1
1;98.12;-42.65;7.6;210.38;88.26;-15.88;-7.89;-338.26;-151.99;8.01;354.92;27.54;-10.14;87.59;-16.25;60.35;3.92;6.95;-172.85;-32.37;76.32;-0.6;6.14;1.42;1
1;-104.19;20.12;5.53;59.31;29.64;-17.18;-7.49;-238.86;-7.66;5.64;-34.48;32.06;-10.67;93.73;21.03;66.71;3.19;9.42;-210.79;-20.19;103.05;7.04;2.55;0.09;1
1;94.8;-47.44;8.24;207.32;90.57;-7.23;-10.31;-333.63;-161.04;9.71;368.68;20.66;-9.97;98.07;-3.13;77.64;3.91;5.89;-192.52;-36.3;155.36;-1.04;6.26;2.42;1
1;-99.78;34.44;7.76;71.22;29.74;-16.38;-8.32;-236.83;4.75;8.83;-18.77;30.69;-10.31;118.37;5.41;60.49;3.53;9.9;-204.32;-21.19;84.76;11.99;2.29;-0.25;1
1;94.41;-56.79;8.09;212.8;101.46;-6.17;-20.32;-322.14;-191.36;9.93;385.76;22.45;-10.17;109.67;-13.85;85.3;5.56;5.8;-217.21;-38.12;148.05;-1.25;5.73;1.79;1
1;-101.85;28.03;8.13;64.19;34.87;-11.28;-8.54;-269.72;-12.76;8.92;-41.74;27.62;-10.65;128.78;20.94;79.34;3.55;8.91;-255.92;-26.81;144.67;11.45;2.56;0.53;1
1;89.3;-39.42;9.16;205.64;100.96;-11.06;-13.49;-281.83;-191.13;8.24;363.5;15.66;-9.42;108.5;-7.46;68.87;4.5;5.32;-207.74;-37.11;139.99;1.77;5.49;2.25;1
1;-98.55;28.73;7.58;65.08;27.28;-12.85;-8.57;-219.88;2.82;6.91;-34.25;26.7;-10.58;115.58;8.24;69.72;3.37;9.16;-240.59;-19.15;79.25;12.48;2.8;0.2;1
1;101.31;-53.35;8.94;216.27;96.32;-13.42;-12.35;-343.74;-188.28;10.54;378.54;20.03;-10;97.33;-9.89;78.12;4.57;6.64;-108.49;-36.74;157.73;0.55;5.81;2.11;1
1;-105.91;20.27;7.44;59.51;29.84;-23.54;-8.23;-247.87;-10.65;6.5;-50.02;32.06;-10.91;120.88;12.57;83.19;3.15;10.26;-292.41;-23.21;113.38;13.8;2.25;0.45;1
1;98.86;-44.08;8.51;216.19;99.4;-12.75;-7.32;-359.18;-199.94;9.35;396.56;21.13;-9.75;100.15;1.02;41.85;4.01;7;-107.4;-35.54;87.22;0.82;6.15;2.38;1
1;-93.22;36.59;5.71;71.7;21.62;-18.22;-7.9;-232.65;11.37;5.82;-16.74;26.23;-10.26;88.16;-4.73;45.26;2.97;8.55;-164.56;-19.3;50.54;7.78;2.6;0.53;1
1;87.93;-52.57;8.41;214.96;99.73;-11.7;-13.88;-346.28;-200.09;10.45;373.06;22.24;-10.19;93.35;-12.08;66.79;4.87;6.96;-174.77;-37.78;105.6;-0.01;6.09;2.35;1
1;-103.56;23.43;6.95;71.04;29.06;-18.1;-6.72;-242.52;-5.25;6.41;-33.37;28.39;-10.65;111.4;2.57;70.53;3.09;9.7;-190.97;-23.71;86.2;10.8;3.14;0.56;1
1;98.9;-53.67;7.76;203.36;97.9;-10.01;-11.06;-282.98;-195.52;10.06;382.02;20.26;-9.31;112.13;4.84;65.89;4.3;6.5;-156.25;-37.2;130.8;-0.93;5.91;2.66;1
1;-110.96;23.83;6.9;63.06;26.85;-13.66;-8.64;-236.39;-11.05;5.63;-30.99;25.17;-11.06;98.79;8.59;60.28;3.13;9.21;-145.51;-23.05;82.01;11.36;2.15;0.67;1
1;82.79;-47.16;8.4;207.85;93.47;-15.68;-8.65;-326.74;-187.24;7.26;371.24;18.79;-9.83;103.51;-10.17;68.52;3.94;7.53;-157.03;-35.89;89.14;1.5;4.65;1.98;1
1;-114.55;26.69;6.84;56.87;28.74;-13.3;-5.34;-233.86;-2.37;4.78;-41.68;29.37;-10.92;114.8;0.38;68.61;3.1;9.07;-234.07;-21.2;89.82;11.93;3.09;0.82;1
1;102.38;-56.28;8.53;212.08;98.15;-10.96;-7.65;-300;-190.48;8.93;386.83;16.95;-9.49;98.86;1.86;60;3.22;6.32;-183.78;-36.45;101.01;1.27;5.09;2.7;1
1;-103.01;24.78;7.82;63.54;31.59;-14.73;-8.72;-228.42;-6.47;6.63;-26.68;26.96;-10.45;120.62;8.35;56.63;3.32;9.57;-160.08;-22.6;83.53;16.54;2.4;0.17;1
1;91.13;-47.44;8.19;203.36;93.62;-7.89;-12.07;-304.08;-180.79;12.48;349.54;19.5;-10.07;105.24;-14.82;92.37;4.77;6.83;-166.99;-35.15;182.73;-1.27;5.97;2.24;1
1;-105.46;26.32;7.49;59.04;29.58;-15.42;-8.11;-244.76;-12.83;7.36;-48.41;18.22;-11.21;110.36;4.39;67.96;3.36;8.06;-204.74;-23.19;108.3;12.1;1.66;0.28;1
1;99.84;-52.27;8.67;215.84;96.79;-12.06;-8.21;-321.62;-176.54;10.46;372.47;15.22;-9.93;106.83;4.65;72.96;3.88;6.16;-94.55;-36.04;176.55;0.78;5.54;2.51;1
